[
  {
    "dataset": "ADSL",
    "level": "L0",
    "repeat": 0,
    "model": "claude-opus-5",
    "score": 1.0,
    "n_attempts": 1,
    "target_variables": [
      "USUBJID",
      "TRT01P",
      "TRT01A",
      "TRTSDT",
      "TRTEDT",
      "TRTDURD",
      "SAFFL",
      "AGEGR1",
      "RACEGR1",
      "EOSSTT"
    ],
    "clean_variables": [
      "USUBJID",
      "TRT01P",
      "TRT01A",
      "TRTSDT",
      "TRTEDT",
      "TRTDURD",
      "SAFFL",
      "AGEGR1",
      "RACEGR1",
      "EOSSTT"
    ],
    "provenance": {
      "USUBJID": [
        "DM.USUBJID"
      ],
      "TRT01P": [
        "DM.ARM"
      ],
      "TRT01A": [
        "DM.ACTARM"
      ],
      "TRTSDT": [
        "EX.USUBJID",
        "EX.EXSTDTC",
        "EX.EXDOSE",
        "EX.EXTRT"
      ],
      "TRTEDT": [
        "EX.USUBJID",
        "EX.EXENDTC",
        "EX.EXDOSE",
        "EX.EXTRT"
      ],
      "TRTDURD": [
        "ADSL.TRTSDT",
        "ADSL.TRTEDT"
      ],
      "SAFFL": [
        "ADSL.TRTSDT"
      ],
      "AGEGR1": [
        "DM.AGE"
      ],
      "RACEGR1": [
        "DM.RACE"
      ],
      "EOSSTT": [
        "DS.USUBJID",
        "DS.DSCAT",
        "DS.DSDECOD"
      ]
    },
    "cost_usd": 0.1087,
    "attempts": [
      {
        "n": 1,
        "executed": true,
        "code": "\"\"\"Derive ADSL (Subject-Level Analysis Dataset) from SDTM DM, EX and DS.\n\nStructure: one record per subject (key = USUBJID).\n\"\"\"\n\nimport numpy as np\nimport pandas as pd\n\nPROVENANCE = {\n    \"USUBJID\": [\"DM.USUBJID\"],\n    \"TRT01P\": [\"DM.ARM\"],\n    \"TRT01A\": [\"DM.ACTARM\"],\n    \"TRTSDT\": [\"EX.USUBJID\", \"EX.EXSTDTC\", \"EX.EXDOSE\", \"EX.EXTRT\"],\n    \"TRTEDT\": [\"EX.USUBJID\", \"EX.EXENDTC\", \"EX.EXDOSE\", \"EX.EXTRT\"],\n    \"TRTDURD\": [\"ADSL.TRTSDT\", \"ADSL.TRTEDT\"],\n    \"SAFFL\": [\"ADSL.TRTSDT\"],\n    \"AGEGR1\": [\"DM.AGE\"],\n    \"RACEGR1\": [\"DM.RACE\"],\n    \"EOSSTT\": [\"DS.USUBJID\", \"DS.DSCAT\", \"DS.DSDECOD\"],\n}\n\n\ndef _parse_iso_date(value):\n    \"\"\"Parse an ISO 8601 date/datetime string to a pandas Timestamp (date part).\n\n    Returns NaT for missing values and for partial dates that lack a day\n    component.\n    \"\"\"\n    # ASSUMPTION: partial dates (e.g. \"2014-01\") are not imputed; they are\n    # treated as missing for TRTSDT/TRTEDT derivation, which is the\n    # conservative choice when the specification is silent on imputation.\n    if value is None:\n        return pd.NaT\n    try:\n        if pd.isna(value):\n            return pd.NaT\n    except (TypeError, ValueError):\n        pass\n    s = str(value).strip()\n    if len(s) < 10:\n        return pd.NaT\n    return pd.to_datetime(s[:10], format=\"%Y-%m-%d\", errors=\"coerce\")\n\n\ndef _to_date(ts):\n    \"\"\"Convert a Timestamp/NaT to a datetime.date object or None.\"\"\"\n    if ts is None or pd.isna(ts):\n        return None\n    return pd.Timestamp(ts).date()\n\n\ndef _clean_str(value):\n    \"\"\"Return a plain Python string; missing values become the empty string.\"\"\"\n    if value is None:\n        return \"\"\n    try:\n        if pd.isna(value):\n            return \"\"\n    except (TypeError, ValueError):\n        pass\n    return str(value)\n\n\ndef derive(sources):\n    dm = sources[\"DM\"].copy()\n    ex = sources[\"EX\"].copy() if \"EX\" in sources else pd.DataFrame(\n        columns=[\"USUBJID\", \"EXSTDTC\", \"EXENDTC\"]\n    )\n    ds = sources[\"DS\"].copy() if \"DS\" in sources else pd.DataFrame(\n        columns=[\"USUBJID\", \"DSCAT\", \"DSDECOD\"]\n    )\n\n    # ------------------------------------------------------------------\n    # Subject spine: one record per subject from DM\n    # ------------------------------------------------------------------\n    # ASSUMPTION: DM is already one record per subject; duplicates (if any)\n    # are collapsed keeping the first occurrence to preserve the stated\n    # one-record-per-subject structure.\n    adsl = dm.drop_duplicates(subset=[\"USUBJID\"], keep=\"first\").copy()\n\n    out = pd.DataFrame()\n    out[\"USUBJID\"] = adsl[\"USUBJID\"].map(_clean_str)\n    out[\"TRT01P\"] = adsl[\"ARM\"].map(_clean_str)\n    out[\"TRT01A\"] = adsl[\"ACTARM\"].map(_clean_str)\n\n    # ------------------------------------------------------------------\n    # TRTSDT / TRTEDT from EX (all dosing records, no EXDOSE filter)\n    # ------------------------------------------------------------------\n    if len(ex) > 0:\n        ex[\"_STDT\"] = ex[\"EXSTDTC\"].map(_parse_iso_date)\n        ex[\"_ENDT\"] = ex[\"EXENDTC\"].map(_parse_iso_date)\n        first_dose = ex.groupby(\"USUBJID\")[\"_STDT\"].min()\n        last_dose = ex.groupby(\"USUBJID\")[\"_ENDT\"].max()\n    else:\n        first_dose = pd.Series(dtype=\"datetime64[ns]\")\n        last_dose = pd.Series(dtype=\"datetime64[ns]\")\n\n    trtsdt_ts = out[\"USUBJID\"].map(first_dose)\n    trtedt_ts = out[\"USUBJID\"].map(last_dose)\n\n    out[\"TRTSDT\"] = [_to_date(v) for v in trtsdt_ts]\n    out[\"TRTEDT\"] = [_to_date(v) for v in trtedt_ts]\n\n    # ------------------------------------------------------------------\n    # TRTDURD = TRTEDT - TRTSDT + 1 (inclusive)\n    # ------------------------------------------------------------------\n    durations = []\n    for sdt, edt in zip(out[\"TRTSDT\"], out[\"TRTEDT\"]):\n        if sdt is None or edt is None:\n            durations.append(np.nan)\n        else:\n            durations.append(float((edt - sdt).days + 1))\n    out[\"TRTDURD\"] = pd.Series(durations, index=out.index, dtype=\"float64\")\n\n    # ------------------------------------------------------------------\n    # SAFFL: \"Y\" if treated (non-missing TRTSDT), else \"N\"\n    # ------------------------------------------------------------------\n    out[\"SAFFL\"] = [\"Y\" if sdt is not None else \"N\" for sdt in out[\"TRTSDT\"]]\n\n    # ------------------------------------------------------------------\n    # AGEGR1: two groups only\n    # ------------------------------------------------------------------\n    age = pd.to_numeric(adsl[\"AGE\"], errors=\"coerce\").reset_index(drop=True)\n    agegr1 = []\n    for a in age:\n        if pd.isna(a):\n            # ASSUMPTION: missing AGE yields a missing (empty) age group.\n            agegr1.append(\"\")\n        elif a <= 64:\n            agegr1.append(\"18-64\")\n        else:\n            agegr1.append(\">64\")\n    out[\"AGEGR1\"] = agegr1\n\n    # ------------------------------------------------------------------\n    # RACEGR1\n    # ------------------------------------------------------------------\n    race = adsl[\"RACE\"].map(_clean_str).reset_index(drop=True)\n    # ASSUMPTION: comparison is on the exact SDTM controlled term \"WHITE\"\n    # (case/space-normalised); any other non-missing value -> \"Non-white\".\n    # A missing RACE cannot be classified and is left missing (empty string).\n    out[\"RACEGR1\"] = [\n        \"\" if r.strip() == \"\" else (\"White\" if r.strip().upper() == \"WHITE\" else \"Non-white\")\n        for r in race\n    ]\n\n    # ------------------------------------------------------------------\n    # EOSSTT from DS disposition events\n    # ------------------------------------------------------------------\n    eosstt_map = {}\n    if len(ds) > 0:\n        disp = ds[ds[\"DSCAT\"].map(_clean_str).str.strip().str.upper() == \"DISPOSITION EVENT\"].copy()\n        if len(disp) > 0:\n            # ASSUMPTION: if a subject has more than one disposition event,\n            # the last one (highest DSSEQ, else last in file order) is used as\n            # the end-of-study status.\n            if \"DSSEQ\" in disp.columns:\n                disp[\"_SEQ\"] = pd.to_numeric(disp[\"DSSEQ\"], errors=\"coerce\")\n                disp = disp.sort_values([\"USUBJID\", \"_SEQ\"], kind=\"mergesort\")\n            last_disp = disp.drop_duplicates(subset=[\"USUBJID\"], keep=\"last\")\n            for usubjid, dsdecod in zip(last_disp[\"USUBJID\"], last_disp[\"DSDECOD\"]):\n                code = _clean_str(dsdecod).strip().upper()\n                if code == \"COMPLETED\":\n                    status = \"COMPLETED\"\n                elif code == \"SCREEN FAILURE\":\n                    status = \"\"\n                elif code == \"\":\n                    # ASSUMPTION: a disposition event with no standardised term\n                    # cannot be classified; status left missing.\n                    status = \"\"\n                else:\n                    status = \"DISCONTINUED\"\n                eosstt_map[_clean_str(usubjid)] = status\n\n    # ASSUMPTION: subjects with no DISPOSITION EVENT record get a missing\n    # (empty) EOSSTT.\n    out[\"EOSSTT\"] = [eosstt_map.get(u, \"\") for u in out[\"USUBJID\"]]\n\n    # ------------------------------------------------------------------\n    # Finalise: order, dtypes\n    # ------------------------------------------------------------------\n    out = out[\n        [\n            \"USUBJID\",\n            \"TRT01P\",\n            \"TRT01A\",\n            \"TRTSDT\",\n            \"TRTEDT\",\n            \"TRTDURD\",\n            \"SAFFL\",\n            \"AGEGR1\",\n            \"RACEGR1\",\n            \"EOSSTT\",\n        ]\n    ]\n    for col in [\"USUBJID\", \"TRT01P\", \"TRT01A\", \"SAFFL\", \"AGEGR1\", \"RACEGR1\", \"EOSSTT\"]:\n        out[col] = out[col].astype(object).map(_clean_str)\n    for col in [\"TRTSDT\", \"TRTEDT\"]:\n        out[col] = out[col].astype(object)\n\n    out = out.sort_values(\"USUBJID\", kind=\"mergesort\").reset_index(drop=True)\n    return out",
        "findings": [],
        "usage": {
          "input_tokens": 1337,
          "output_tokens": 3941,
          "cache_read": 7037,
          "cache_write": 0
        }
      }
    ]
  },
  {
    "dataset": "ADSL",
    "level": "L0",
    "repeat": 1,
    "model": "claude-opus-5",
    "score": 1.0,
    "n_attempts": 1,
    "target_variables": [
      "USUBJID",
      "TRT01P",
      "TRT01A",
      "TRTSDT",
      "TRTEDT",
      "TRTDURD",
      "SAFFL",
      "AGEGR1",
      "RACEGR1",
      "EOSSTT"
    ],
    "clean_variables": [
      "USUBJID",
      "TRT01P",
      "TRT01A",
      "TRTSDT",
      "TRTEDT",
      "TRTDURD",
      "SAFFL",
      "AGEGR1",
      "RACEGR1",
      "EOSSTT"
    ],
    "provenance": {
      "USUBJID": [
        "DM.USUBJID"
      ],
      "TRT01P": [
        "DM.ARM"
      ],
      "TRT01A": [
        "DM.ACTARM"
      ],
      "TRTSDT": [
        "EX.USUBJID",
        "EX.EXSTDTC"
      ],
      "TRTEDT": [
        "EX.USUBJID",
        "EX.EXENDTC"
      ],
      "TRTDURD": [
        "ADSL.TRTSDT",
        "ADSL.TRTEDT"
      ],
      "SAFFL": [
        "ADSL.TRTSDT"
      ],
      "AGEGR1": [
        "DM.AGE"
      ],
      "RACEGR1": [
        "DM.RACE"
      ],
      "EOSSTT": [
        "DS.USUBJID",
        "DS.DSCAT",
        "DS.DSDECOD",
        "DS.DSSEQ"
      ]
    },
    "cost_usd": 0.1049,
    "attempts": [
      {
        "n": 1,
        "executed": true,
        "code": "\"\"\"Derive ADSL (Subject-Level Analysis Dataset) from SDTM DM, EX and DS.\"\"\"\n\nfrom datetime import datetime\n\nimport numpy as np\nimport pandas as pd\n\nPROVENANCE = {\n    \"USUBJID\": [\"DM.USUBJID\"],\n    \"TRT01P\": [\"DM.ARM\"],\n    \"TRT01A\": [\"DM.ACTARM\"],\n    \"TRTSDT\": [\"EX.USUBJID\", \"EX.EXSTDTC\"],\n    \"TRTEDT\": [\"EX.USUBJID\", \"EX.EXENDTC\"],\n    \"TRTDURD\": [\"ADSL.TRTSDT\", \"ADSL.TRTEDT\"],\n    \"SAFFL\": [\"ADSL.TRTSDT\"],\n    \"AGEGR1\": [\"DM.AGE\"],\n    \"RACEGR1\": [\"DM.RACE\"],\n    \"EOSSTT\": [\"DS.USUBJID\", \"DS.DSCAT\", \"DS.DSDECOD\", \"DS.DSSEQ\"],\n}\n\n\ndef _parse_date(value):\n    \"\"\"Convert an ISO 8601 SDTM date/time string to a datetime.date.\n\n    Returns None when the value is missing or the date is not complete to the\n    day level (partial dates are not imputed - see ASSUMPTION below).\n    \"\"\"\n    # ASSUMPTION: no imputation of partial/missing dates is performed; a value\n    # that does not carry a complete yyyy-mm-dd component is treated as missing.\n    if value is None:\n        return None\n    if isinstance(value, float) and np.isnan(value):\n        return None\n    if not isinstance(value, str):\n        return None\n    s = value.strip()\n    if len(s) < 10:\n        return None\n    try:\n        return datetime.strptime(s[:10], \"%Y-%m-%d\").date()\n    except ValueError:\n        return None\n\n\ndef _as_str(value):\n    \"\"\"Return a plain Python string ('' for missing).\"\"\"\n    if value is None:\n        return \"\"\n    if isinstance(value, float) and np.isnan(value):\n        return \"\"\n    if value is pd.NaT:\n        return \"\"\n    return str(value).strip()\n\n\ndef derive(sources):\n    dm = sources[\"DM\"]\n    ex = sources.get(\"EX\")\n    ds = sources.get(\"DS\")\n\n    # ---------------------------------------------------------------- subjects\n    # ASSUMPTION: DM defines the ADSL population (one record per subject);\n    # duplicates, if any, are collapsed keeping the first occurrence.\n    base = dm.drop_duplicates(subset=[\"USUBJID\"]).copy()\n\n    out = pd.DataFrame()\n    out[\"USUBJID\"] = base[\"USUBJID\"].map(_as_str)\n    out[\"TRT01P\"] = base[\"ARM\"].map(_as_str)\n    out[\"TRT01A\"] = base[\"ACTARM\"].map(_as_str)\n\n    # ------------------------------------------------------- TRTSDT / TRTEDT\n    # All EX dosing records are used; EXDOSE is NOT used as a filter because\n    # placebo administrations legitimately carry EXDOSE = 0.\n    trtsdt_map = {}\n    trtedt_map = {}\n    if ex is not None and len(ex) > 0:\n        exw = ex.copy()\n        exw[\"_ST\"] = exw[\"EXSTDTC\"].map(_parse_date)\n        exw[\"_EN\"] = exw[\"EXENDTC\"].map(_parse_date)\n        for usubjid, grp in exw.groupby(\"EXUSUBJID\" if \"EXUSUBJID\" in exw.columns else \"USUBJID\"):\n            starts = [d for d in grp[\"_ST\"].tolist() if d is not None]\n            ends = [d for d in grp[\"_EN\"].tolist() if d is not None]\n            if starts:\n                trtsdt_map[_as_str(usubjid)] = min(starts)\n            if ends:\n                trtedt_map[_as_str(usubjid)] = max(ends)\n\n    out[\"TRTSDT\"] = [trtsdt_map.get(u) for u in out[\"USUBJID\"]]\n    out[\"TRTEDT\"] = [trtedt_map.get(u) for u in out[\"USUBJID\"]]\n\n    # ---------------------------------------------------------------- TRTDURD\n    durations = []\n    for sdt, edt in zip(out[\"TRTSDT\"], out[\"TRTEDT\"]):\n        if sdt is None or edt is None:\n            durations.append(np.nan)\n        else:\n            durations.append(float((edt - sdt).days + 1))\n    out[\"TRTDURD\"] = pd.Series(durations, index=out.index, dtype=\"float64\")\n\n    # ------------------------------------------------------------------ SAFFL\n    out[\"SAFFL\"] = [\"Y\" if sdt is not None else \"N\" for sdt in out[\"TRTSDT\"]]\n\n    # ----------------------------------------------------------------- AGEGR1\n    def _agegr1(age):\n        if age is None or (isinstance(age, float) and np.isnan(age)):\n            return \"\"\n        try:\n            a = float(age)\n        except (TypeError, ValueError):\n            return \"\"\n        # ASSUMPTION: AGE is recorded in years (DM.AGEU = 'YEARS' in this study).\n        return \"18-64\" if a <= 64 else \">64\"\n\n    out[\"AGEGR1\"] = base[\"AGE\"].map(_agegr1).values\n\n    # ---------------------------------------------------------------- RACEGR1\n    def _racegr1(race):\n        r = _as_str(race).upper()\n        if r == \"\":\n            # ASSUMPTION: a missing RACE cannot be pooled into 'White' and is\n            # therefore reported as missing rather than 'Non-white'.\n            return \"\"\n        return \"White\" if r == \"WHITE\" else \"Non-white\"\n\n    out[\"RACEGR1\"] = base[\"RACE\"].map(_racegr1).values\n\n    # ----------------------------------------------------------------- EOSSTT\n    eosstt_map = {}\n    if ds is not None and len(ds) > 0:\n        dsw = ds.copy()\n        dsw[\"_CAT\"] = dsw[\"DSCAT\"].map(lambda v: _as_str(v).upper())\n        disp = dsw[dsw[\"_CAT\"] == \"DISPOSITION EVENT\"].copy()\n        if len(disp) > 0:\n            # ASSUMPTION: if a subject has more than one disposition event, the\n            # last one recorded (highest DSSEQ) determines end-of-study status.\n            if \"DSSEQ\" in disp.columns:\n                disp[\"_SEQ\"] = pd.to_numeric(disp[\"DSSEQ\"], errors=\"coerce\")\n                disp = disp.sort_values([\"USUBJID\", \"_SEQ\"], kind=\"mergesort\")\n            last = disp.groupby(\"USUBJID\", as_index=False).tail(1)\n            for usubjid, dsdecod in zip(last[\"USUBJID\"], last[\"DSDECOD\"]):\n                dec = _as_str(dsdecod).upper()\n                if dec == \"COMPLETED\":\n                    status = \"COMPLETED\"\n                elif dec == \"SCREEN FAILURE\":\n                    status = \"\"\n                else:\n                    status = \"DISCONTINUED\"\n                eosstt_map[_as_str(usubjid)] = status\n\n    # ASSUMPTION: subjects with no DISPOSITION EVENT record get missing EOSSTT.\n    out[\"EOSSTT\"] = [eosstt_map.get(u, \"\") for u in out[\"USUBJID\"]]\n\n    out = out[\n        [\n            \"USUBJID\",\n            \"TRT01P\",\n            \"TRT01A\",\n            \"TRTSDT\",\n            \"TRTEDT\",\n            \"TRTDURD\",\n            \"SAFFL\",\n            \"AGEGR1\",\n            \"RACEGR1\",\n            \"EOSSTT\",\n        ]\n    ]\n\n    out = out.sort_values(\"USUBJID\", kind=\"mergesort\").reset_index(drop=True)\n\n    # Guarantee object dtype holding datetime.date / None for date variables\n    for col in (\"TRTSDT\", \"TRTEDT\"):\n        out[col] = out[col].astype(object).where(out[col].notna(), None)\n\n    return out",
        "findings": [],
        "usage": {
          "input_tokens": 1337,
          "output_tokens": 3789,
          "cache_read": 7037,
          "cache_write": 0
        }
      }
    ]
  },
  {
    "dataset": "ADSL",
    "level": "L0",
    "repeat": 2,
    "model": "claude-opus-5",
    "score": 1.0,
    "n_attempts": 1,
    "target_variables": [
      "USUBJID",
      "TRT01P",
      "TRT01A",
      "TRTSDT",
      "TRTEDT",
      "TRTDURD",
      "SAFFL",
      "AGEGR1",
      "RACEGR1",
      "EOSSTT"
    ],
    "clean_variables": [
      "USUBJID",
      "TRT01P",
      "TRT01A",
      "TRTSDT",
      "TRTEDT",
      "TRTDURD",
      "SAFFL",
      "AGEGR1",
      "RACEGR1",
      "EOSSTT"
    ],
    "provenance": {
      "USUBJID": [
        "DM.USUBJID"
      ],
      "TRT01P": [
        "DM.ARM"
      ],
      "TRT01A": [
        "DM.ACTARM"
      ],
      "TRTSDT": [
        "EX.USUBJID",
        "EX.EXSTDTC",
        "EX.EXDOSE",
        "EX.EXTRT"
      ],
      "TRTEDT": [
        "EX.USUBJID",
        "EX.EXENDTC",
        "EX.EXDOSE",
        "EX.EXTRT"
      ],
      "TRTDURD": [
        "ADSL.TRTSDT",
        "ADSL.TRTEDT"
      ],
      "SAFFL": [
        "ADSL.TRTSDT"
      ],
      "AGEGR1": [
        "DM.AGE"
      ],
      "RACEGR1": [
        "DM.RACE"
      ],
      "EOSSTT": [
        "DS.USUBJID",
        "DS.DSCAT",
        "DS.DSDECOD"
      ]
    },
    "cost_usd": 0.0964,
    "attempts": [
      {
        "n": 1,
        "executed": true,
        "code": "\"\"\"Derive ADSL (Subject-Level Analysis Dataset) from SDTM DM, EX and DS.\"\"\"\n\nimport datetime\n\nimport numpy as np\nimport pandas as pd\n\nPROVENANCE = {\n    \"USUBJID\": [\"DM.USUBJID\"],\n    \"TRT01P\": [\"DM.ARM\"],\n    \"TRT01A\": [\"DM.ACTARM\"],\n    \"TRTSDT\": [\"EX.USUBJID\", \"EX.EXSTDTC\", \"EX.EXDOSE\", \"EX.EXTRT\"],\n    \"TRTEDT\": [\"EX.USUBJID\", \"EX.EXENDTC\", \"EX.EXDOSE\", \"EX.EXTRT\"],\n    \"TRTDURD\": [\"ADSL.TRTSDT\", \"ADSL.TRTEDT\"],\n    \"SAFFL\": [\"ADSL.TRTSDT\"],\n    \"AGEGR1\": [\"DM.AGE\"],\n    \"RACEGR1\": [\"DM.RACE\"],\n    \"EOSSTT\": [\"DS.USUBJID\", \"DS.DSCAT\", \"DS.DSDECOD\"],\n}\n\n\ndef _parse_iso_date(value):\n    \"\"\"Parse an ISO 8601 date/datetime string into a datetime.date.\n\n    ASSUMPTION: no date imputation is performed. A value that does not carry a\n    complete (YYYY-MM-DD) date component is treated as missing, which is the\n    conservative choice for a regulated submission.\n    \"\"\"\n    if value is None:\n        return None\n    if isinstance(value, float) and np.isnan(value):\n        return None\n    if isinstance(value, datetime.datetime):\n        return value.date()\n    if isinstance(value, datetime.date):\n        return value\n    s = str(value).strip()\n    if len(s) < 10:\n        return None\n    try:\n        return datetime.date(int(s[0:4]), int(s[5:7]), int(s[8:10]))\n    except (ValueError, TypeError):\n        return None\n\n\ndef _as_str(value):\n    \"\"\"Return a plain Python string; missing values become the empty string.\"\"\"\n    if value is None:\n        return \"\"\n    if isinstance(value, float) and np.isnan(value):\n        return \"\"\n    if value is pd.NaT:\n        return \"\"\n    return str(value)\n\n\ndef derive(sources):\n    dm = sources[\"DM\"].copy()\n    ex = sources[\"EX\"].copy() if \"EX\" in sources else pd.DataFrame(\n        columns=[\"USUBJID\", \"EXSTDTC\", \"EXENDTC\"]\n    )\n    ds = sources[\"DS\"].copy() if \"DS\" in sources else pd.DataFrame(\n        columns=[\"USUBJID\", \"DSCAT\", \"DSDECOD\"]\n    )\n\n    # ---------------------------------------------------------------- base ---\n    adsl = pd.DataFrame(\n        {\n            \"USUBJID\": dm[\"USUBJID\"].map(_as_str),\n            \"TRT01P\": dm[\"ARM\"].map(_as_str),\n            \"TRT01A\": dm[\"ACTARM\"].map(_as_str),\n        }\n    )\n    # ASSUMPTION: DM is already one record per subject (SDTM requirement); any\n    # accidental duplicate is collapsed keeping the first occurrence.\n    adsl = adsl.drop_duplicates(subset=[\"USUBJID\"], keep=\"first\")\n\n    # ------------------------------------------------- treatment start/end ---\n    # ALL exposure records are used: EXDOSE == 0 (placebo) is valid exposure.\n    ex_dates = pd.DataFrame(\n        {\n            \"USUBJID\": ex[\"USUBJID\"].map(_as_str) if len(ex) else pd.Series(dtype=object),\n            \"STDT\": ex[\"EXSTDTC\"].map(_parse_iso_date) if len(ex) else pd.Series(dtype=object),\n            \"ENDT\": ex[\"EXENDTC\"].map(_parse_iso_date) if len(ex) else pd.Series(dtype=object),\n        }\n    )\n\n    first_dose, last_dose = {}, {}\n    for usubjid, grp in ex_dates.groupby(\"USUBJID\", sort=False):\n        st = [d for d in grp[\"STDT\"] if d is not None]\n        en = [d for d in grp[\"ENDT\"] if d is not None]\n        if st:\n            first_dose[usubjid] = min(st)\n        if en:\n            last_dose[usubjid] = max(en)\n\n    adsl[\"TRTSDT\"] = [first_dose.get(u) for u in adsl[\"USUBJID\"]]\n    adsl[\"TRTEDT\"] = [last_dose.get(u) for u in adsl[\"USUBJID\"]]\n\n    # -------------------------------------------------------------- TRTDURD --\n    durd = []\n    for sdt, edt in zip(adsl[\"TRTSDT\"], adsl[\"TRTEDT\"]):\n        if sdt is None or edt is None:\n            durd.append(np.nan)\n        else:\n            durd.append(float((edt - sdt).days + 1))\n    adsl[\"TRTDURD\"] = durd\n\n    # ---------------------------------------------------------------- SAFFL --\n    adsl[\"SAFFL\"] = [\"Y\" if sdt is not None else \"N\" for sdt in adsl[\"TRTSDT\"]]\n\n    # --------------------------------------------------------------- AGEGR1 --\n    # ASSUMPTION: a missing AGE cannot be grouped and yields an empty string.\n    age = pd.to_numeric(dm.set_index(dm[\"USUBJID\"].map(_as_str))[\"AGE\"], errors=\"coerce\")\n    age = age[~age.index.duplicated(keep=\"first\")]\n\n    def _agegr1(u):\n        a = age.get(u, np.nan)\n        if pd.isna(a):\n            return \"\"\n        return \"18-64\" if a <= 64 else \">64\"\n\n    adsl[\"AGEGR1\"] = [_agegr1(u) for u in adsl[\"USUBJID\"]]\n\n    # -------------------------------------------------------------- RACEGR1 --\n    race = dm.set_index(dm[\"USUBJID\"].map(_as_str))[\"RACE\"].map(_as_str)\n    race = race[~race.index.duplicated(keep=\"first\")]\n    adsl[\"RACEGR1\"] = [\n        \"White\" if race.get(u, \"\").strip().upper() == \"WHITE\" else \"Non-white\"\n        for u in adsl[\"USUBJID\"]\n    ]\n\n    # --------------------------------------------------------------- EOSSTT --\n    # ASSUMPTION: when a subject has more than one DISPOSITION EVENT record the\n    # first one by DSSEQ (record order otherwise) is used.\n    if len(ds):\n        disp = ds.copy()\n        disp[\"USUBJID\"] = disp[\"USUBJID\"].map(_as_str)\n        disp[\"DSCAT\"] = disp[\"DSCAT\"].map(_as_str)\n        disp[\"DSDECOD\"] = disp[\"DSDECOD\"].map(_as_str)\n        disp = disp[disp[\"DSCAT\"].str.strip().str.upper() == \"DISPOSITION EVENT\"]\n        if \"DSSEQ\" in disp.columns:\n            disp = disp.sort_values([\"USUBJID\", \"DSSEQ\"], kind=\"mergesort\")\n        disp = disp.drop_duplicates(subset=[\"USUBJID\"], keep=\"first\")\n        decod_map = dict(zip(disp[\"USUBJID\"], disp[\"DSDECOD\"]))\n    else:\n        decod_map = {}\n\n    def _eosstt(u):\n        # ASSUMPTION: no disposition event record -> status not derivable -> \"\".\n        if u not in decod_map:\n            return \"\"\n        d = decod_map[u].strip().upper()\n        if d == \"COMPLETED\":\n            return \"COMPLETED\"\n        if d == \"SCREEN FAILURE\":\n            return \"\"\n        if d == \"\":\n            return \"\"\n        return \"DISCONTINUED\"\n\n    adsl[\"EOSSTT\"] = [_eosstt(u) for u in adsl[\"USUBJID\"]]\n\n    # ---------------------------------------------------------------- final --\n    adsl = adsl[\n        [\n            \"USUBJID\",\n            \"TRT01P\",\n            \"TRT01A\",\n            \"TRTSDT\",\n            \"TRTEDT\",\n            \"TRTDURD\",\n            \"SAFFL\",\n            \"AGEGR1\",\n            \"RACEGR1\",\n            \"EOSSTT\",\n        ]\n    ]\n    adsl[\"TRTSDT\"] = adsl[\"TRTSDT\"].astype(object)\n    adsl[\"TRTEDT\"] = adsl[\"TRTEDT\"].astype(object)\n    adsl[\"TRTDURD\"] = adsl[\"TRTDURD\"].astype(float)\n\n    return adsl.sort_values(\"USUBJID\", kind=\"mergesort\").reset_index(drop=True)",
        "findings": [],
        "usage": {
          "input_tokens": 1337,
          "output_tokens": 3446,
          "cache_read": 7037,
          "cache_write": 0
        }
      }
    ]
  },
  {
    "dataset": "ADSL",
    "level": "L1",
    "repeat": 0,
    "model": "claude-opus-5",
    "score": 0.9,
    "n_attempts": 2,
    "target_variables": [
      "USUBJID",
      "TRT01P",
      "TRT01A",
      "TRTSDT",
      "TRTEDT",
      "TRTDURD",
      "SAFFL",
      "AGEGR1",
      "RACEGR1",
      "EOSSTT"
    ],
    "clean_variables": [
      "USUBJID",
      "TRT01P",
      "TRT01A",
      "TRTSDT",
      "TRTEDT",
      "TRTDURD",
      "SAFFL",
      "AGEGR1",
      "RACEGR1"
    ],
    "provenance": {
      "USUBJID": [
        "DM.USUBJID"
      ],
      "TRT01P": [
        "DM.ARM"
      ],
      "TRT01A": [
        "DM.ACTARM"
      ],
      "TRTSDT": [
        "EX.USUBJID",
        "EX.EXSTDTC",
        "EX.EXDOSE",
        "EX.EXTRT"
      ],
      "TRTEDT": [
        "EX.USUBJID",
        "EX.EXENDTC",
        "EX.EXDOSE",
        "EX.EXTRT"
      ],
      "TRTDURD": [
        "ADSL.TRTSDT",
        "ADSL.TRTEDT"
      ],
      "SAFFL": [
        "ADSL.TRTSDT"
      ],
      "AGEGR1": [
        "DM.AGE"
      ],
      "RACEGR1": [
        "DM.RACE"
      ],
      "EOSSTT": [
        "DS.USUBJID",
        "DS.DSCAT",
        "DS.DSDECOD"
      ]
    },
    "cost_usd": 0.2419,
    "attempts": [
      {
        "n": 1,
        "executed": true,
        "code": "\"\"\"Derive ADSL (Subject-Level Analysis Dataset) from SDTM DM, EX and DS.\"\"\"\n\nimport re\nimport numpy as np\nimport pandas as pd\n\nPROVENANCE = {\n    \"USUBJID\": [\"DM.USUBJID\"],\n    \"TRT01P\": [\"DM.ARM\"],\n    \"TRT01A\": [\"DM.ACTARM\"],\n    \"TRTSDT\": [\"EX.USUBJID\", \"EX.EXSTDTC\", \"EX.EXDOSE\", \"EX.EXTRT\"],\n    \"TRTEDT\": [\"EX.USUBJID\", \"EX.EXENDTC\", \"EX.EXDOSE\", \"EX.EXTRT\"],\n    \"TRTDURD\": [\"ADSL.TRTSDT\", \"ADSL.TRTEDT\"],\n    \"SAFFL\": [\"ADSL.TRTSDT\"],\n    \"AGEGR1\": [\"DM.AGE\"],\n    \"RACEGR1\": [\"DM.RACE\"],\n    \"EOSSTT\": [\"DS.USUBJID\", \"DS.DSCAT\", \"DS.DSDECOD\"],\n}\n\n_ISO_DATE = re.compile(r\"^(\\d{4})-(\\d{2})-(\\d{2})\")\n\n\ndef _to_date(value):\n    \"\"\"Parse an ISO 8601 SDTM --DTC string into a datetime.date.\n\n    # ASSUMPTION: partial/missing dates (no complete yyyy-mm-dd component) are\n    # NOT imputed; they are treated as missing, which is the conservative\n    # choice when the spec is silent on imputation.\n    \"\"\"\n    if value is None:\n        return None\n    if isinstance(value, float) and np.isnan(value):\n        return None\n    if isinstance(value, pd.Timestamp):\n        return value.date() if not pd.isna(value) else None\n    s = str(value).strip()\n    if s == \"\" or s.lower() in (\"nan\", \"nat\", \"none\"):\n        return None\n    m = _ISO_DATE.match(s)\n    if not m:\n        return None\n    try:\n        return pd.Timestamp(int(m.group(1)), int(m.group(2)), int(m.group(3))).date()\n    except ValueError:\n        return None\n\n\ndef _str_or_none(value):\n    if value is None:\n        return None\n    if isinstance(value, float) and np.isnan(value):\n        return None\n    s = str(value).strip()\n    if s == \"\" or s.lower() in (\"nan\", \"none\"):\n        return None\n    return s\n\n\ndef derive(sources):\n    dm = sources[\"DM\"].copy()\n    ex = sources[\"EX\"].copy()\n    ds = sources[\"DS\"].copy()\n\n    # ------------------------------------------------------------------\n    # Subject spine: one record per subject from DM\n    # ------------------------------------------------------------------\n    out = pd.DataFrame({\n        \"USUBJID\": dm[\"USUBJID\"].map(_str_or_none),\n        \"TRT01P\": dm[\"ARM\"].map(_str_or_none),\n        \"TRT01A\": dm[\"ACTARM\"].map(_str_or_none),\n    })\n    # ASSUMPTION: DM is already one record per subject; de-duplicate defensively.\n    out = out.drop_duplicates(subset=[\"USUBJID\"]).reset_index(drop=True)\n\n    # ------------------------------------------------------------------\n    # TRTSDT / TRTEDT from EX\n    # ASSUMPTION: only records representing an actual administration of study\n    # treatment are considered, i.e. EXDOSE > 0, or EXDOSE = 0 for a placebo\n    # treatment (standard ADaM/admiral convention). Records with a missing\n    # dose or an unparseable date are excluded.\n    # ------------------------------------------------------------------\n    trtsdt_map, trtedt_map = {}, {}\n    if len(ex) > 0:\n        exw = ex.copy()\n        exw[\"_USUBJID\"] = exw[\"USUBJID\"].map(_str_or_none)\n        exw[\"_DOSE\"] = pd.to_numeric(exw[\"EXDOSE\"], errors=\"coerce\")\n        exw[\"_TRT\"] = exw[\"EXTRT\"].map(lambda v: (_str_or_none(v) or \"\").upper())\n        valid = (exw[\"_DOSE\"] > 0) | (\n            (exw[\"_DOSE\"] == 0) & (exw[\"_TRT\"].str.contains(\"PLACEBO\", na=False))\n        )\n        exw = exw[valid]\n\n        st = exw.assign(_D=exw[\"EXSTDTC\"].map(_to_date)).dropna(subset=[\"_D\"])\n        if len(st) > 0:\n            trtsdt_map = st.groupby(\"_USUBJID\")[\"_D\"].min().to_dict()\n\n        en = exw.assign(_D=exw[\"EXENDTC\"].map(_to_date)).dropna(subset=[\"_D\"])\n        if len(en) > 0:\n            trtedt_map = en.groupby(\"_USUBJID\")[\"_D\"].max().to_dict()\n\n    out[\"TRTSDT\"] = out[\"USUBJID\"].map(lambda u: trtsdt_map.get(u)).astype(object)\n    out[\"TRTEDT\"] = out[\"USUBJID\"].map(lambda u: trtedt_map.get(u)).astype(object)\n\n    # ------------------------------------------------------------------\n    # TRTDURD = TRTEDT - TRTSDT + 1 (both dates required)\n    # ------------------------------------------------------------------\n    def _dur(row):\n        s, e = row[\"TRTSDT\"], row[\"TRTEDT\"]\n        if s is None or e is None:\n            return np.nan\n        return float((e - s).days + 1)\n\n    out[\"TRTDURD\"] = out.apply(_dur, axis=1).astype(float)\n\n    # ------------------------------------------------------------------\n    # SAFFL: treated subjects (any exposure to study treatment)\n    # ------------------------------------------------------------------\n    out[\"SAFFL\"] = out[\"TRTSDT\"].map(lambda d: \"Y\" if d is not None else \"N\")\n\n    # ------------------------------------------------------------------\n    # AGEGR1 / RACEGR1\n    # ASSUMPTION: pooled age groups <18 / 18-64 / >64 ; missing AGE -> missing.\n    # ASSUMPTION: pooled race groups White / Non-White ; missing RACE -> missing.\n    # ------------------------------------------------------------------\n    age_map = {}\n    race_map = {}\n    for _, r in dm.iterrows():\n        u = _str_or_none(r[\"USUBJID\"])\n        if u is None or u in age_map:\n            continue\n        age = pd.to_numeric(r.get(\"AGE\"), errors=\"coerce\")\n        if pd.isna(age):\n            age_map[u] = None\n        elif age < 18:\n            age_map[u] = \"<18\"\n        elif age <= 64:\n            age_map[u] = \"18-64\"\n        else:\n            age_map[u] = \">64\"\n        race = _str_or_none(r.get(\"RACE\"))\n        if race is None:\n            race_map[u] = None\n        elif race.upper() == \"WHITE\":\n            race_map[u] = \"White\"\n        else:\n            race_map[u] = \"Non-White\"\n\n    out[\"AGEGR1\"] = out[\"USUBJID\"].map(lambda u: age_map.get(u)).astype(object)\n    out[\"RACEGR1\"] = out[\"USUBJID\"].map(lambda u: race_map.get(u)).astype(object)\n\n    # ------------------------------------------------------------------\n    # EOSSTT from DS disposition records\n    # ASSUMPTION: the end-of-study status is taken from DS records with\n    # DSCAT = 'DISPOSITION EVENT'. DSDECOD 'COMPLETED' -> 'COMPLETED',\n    # 'SCREEN FAILURE' -> 'SCREEN FAILURE', any other reason -> 'DISCONTINUED',\n    # and no disposition record -> 'ONGOING'. If multiple disposition records\n    # exist, the last one (highest DSSEQ) is used.\n    # ------------------------------------------------------------------\n    eos_map = {}\n    if len(ds) > 0:\n        dsw = ds.copy()\n        dsw[\"_USUBJID\"] = dsw[\"USUBJID\"].map(_str_or_none)\n        dsw[\"_CAT\"] = dsw[\"DSCAT\"].map(lambda v: (_str_or_none(v) or \"\").upper())\n        dsw[\"_DECOD\"] = dsw[\"DSDECOD\"].map(lambda v: (_str_or_none(v) or \"\").upper())\n        dsw = dsw[dsw[\"_CAT\"] == \"DISPOSITION EVENT\"]\n        if \"DSSEQ\" in dsw.columns:\n            dsw[\"_SEQ\"] = pd.to_numeric(dsw[\"DSSEQ\"], errors=\"coerce\")\n            dsw = dsw.sort_values([\"_USUBJID\", \"_SEQ\"], kind=\"mergesort\")\n        for u, grp in dsw.groupby(\"_USUBJID\", sort=False):\n            decod = grp[\"_DECOD\"].iloc[-1]\n            if decod == \"COMPLETED\":\n                eos_map[u] = \"COMPLETED\"\n            elif decod == \"SCREEN FAILURE\":\n                eos_map[u] = \"SCREEN FAILURE\"\n            elif decod != \"\":\n                eos_map[u] = \"DISCONTINUED\"\n            else:\n                eos_map[u] = \"ONGOING\"\n\n    out[\"EOSSTT\"] = out[\"USUBJID\"].map(lambda u: eos_map.get(u, \"ONGOING\")).astype(object)\n\n    # ------------------------------------------------------------------\n    # Final structure: exactly the specified variables, sorted by key\n    # ------------------------------------------------------------------\n    cols = [\"USUBJID\", \"TRT01P\", \"TRT01A\", \"TRTSDT\", \"TRTEDT\", \"TRTDURD\",\n            \"SAFFL\", \"AGEGR1\", \"RACEGR1\", \"EOSSTT\"]\n    out = out[cols].sort_values(\"USUBJID\", kind=\"mergesort\").reset_index(drop=True)\n\n    for c in [\"USUBJID\", \"TRT01P\", \"TRT01A\", \"SAFFL\", \"AGEGR1\", \"RACEGR1\", \"EOSSTT\"]:\n        out[c] = out[c].map(lambda v: None if v is None else str(v)).astype(object)\n\n    return out",
        "findings": [
          {
            "code": "CT_VIOLATION",
            "layer": "STRUCTURAL",
            "variable": "RACEGR1",
            "message": "values outside controlled terminology: [\"'Non-White'\"]",
            "n_rows": 33,
            "examples": [
              "Non-White"
            ],
            "silent": false,
            "needs_answer_key": false
          },
          {
            "code": "VALUE_COUNTS",
            "layer": "CALIBRATED",
            "variable": "RACEGR1",
            "message": "value distribution differs: expected {'White': 273, 'Non-white': 33}, got {'White': 273, 'Non-White': 33}",
            "n_rows": 0,
            "examples": [],
            "silent": false,
            "needs_answer_key": true
          },
          {
            "code": "CT_VIOLATION",
            "layer": "STRUCTURAL",
            "variable": "EOSSTT",
            "message": "values outside controlled terminology: [\"'SCREEN FAILURE'\"]",
            "n_rows": 52,
            "examples": [
              "SCREEN FAILURE"
            ],
            "silent": false,
            "needs_answer_key": false
          },
          {
            "code": "VALUE_COUNTS",
            "layer": "CALIBRATED",
            "variable": "EOSSTT",
            "message": "value distribution differs: expected {'DISCONTINUED': 144, 'COMPLETED': 110, '': 52}, got {'DISCONTINUED': 144, 'COMPLETED': 110, 'SCREEN FAILURE': 52}",
            "n_rows": 0,
            "examples": [],
            "silent": false,
            "needs_answer_key": true
          },
          {
            "code": "TRUTH_DIFF",
            "layer": "TRUTH",
            "variable": "RACEGR1",
            "message": "33 of 306 values differ from ground truth",
            "n_rows": 33,
            "examples": [
              {
                "key": "01-701-1176",
                "expected": "Non-white",
                "got": "Non-White"
              },
              {
                "key": "01-701-1203",
                "expected": "Non-white",
                "got": "Non-White"
              },
              {
                "key": "01-701-1240",
                "expected": "Non-white",
                "got": "Non-White"
              },
              {
                "key": "01-701-1275",
                "expected": "Non-white",
                "got": "Non-White"
              },
              {
                "key": "01-701-1363",
                "expected": "Non-white",
                "got": "Non-White"
              }
            ],
            "silent": true,
            "needs_answer_key": true
          },
          {
            "code": "TRUTH_DIFF",
            "layer": "TRUTH",
            "variable": "EOSSTT",
            "message": "52 of 306 values differ from ground truth",
            "n_rows": 52,
            "examples": [
              {
                "key": "01-701-1057",
                "expected": "",
                "got": "SCREEN FAILURE"
              },
              {
                "key": "01-701-1145",
                "expected": "",
                "got": "SCREEN FAILURE"
              },
              {
                "key": "01-701-1162",
                "expected": "",
                "got": "SCREEN FAILURE"
              },
              {
                "key": "01-701-1176",
                "expected": "",
                "got": "SCREEN FAILURE"
              },
              {
                "key": "01-701-1240",
                "expected": "",
                "got": "SCREEN FAILURE"
              }
            ],
            "silent": true,
            "needs_answer_key": true
          }
        ],
        "usage": {
          "input_tokens": 959,
          "output_tokens": 4731,
          "cache_read": 7037,
          "cache_write": 0
        }
      },
      {
        "n": 2,
        "executed": true,
        "code": "\"\"\"Derive ADSL (Subject-Level Analysis Dataset) from SDTM DM, EX and DS.\"\"\"\n\nimport re\nimport numpy as np\nimport pandas as pd\n\nPROVENANCE = {\n    \"USUBJID\": [\"DM.USUBJID\"],\n    \"TRT01P\": [\"DM.ARM\"],\n    \"TRT01A\": [\"DM.ACTARM\"],\n    \"TRTSDT\": [\"EX.USUBJID\", \"EX.EXSTDTC\", \"EX.EXDOSE\", \"EX.EXTRT\"],\n    \"TRTEDT\": [\"EX.USUBJID\", \"EX.EXENDTC\", \"EX.EXDOSE\", \"EX.EXTRT\"],\n    \"TRTDURD\": [\"ADSL.TRTSDT\", \"ADSL.TRTEDT\"],\n    \"SAFFL\": [\"ADSL.TRTSDT\"],\n    \"AGEGR1\": [\"DM.AGE\"],\n    \"RACEGR1\": [\"DM.RACE\"],\n    \"EOSSTT\": [\"DS.USUBJID\", \"DS.DSCAT\", \"DS.DSDECOD\"],\n}\n\n_ISO_DATE = re.compile(r\"^(\\d{4})-(\\d{2})-(\\d{2})\")\n\n\ndef _to_date(value):\n    \"\"\"Parse an ISO 8601 SDTM --DTC string into a datetime.date.\n\n    # ASSUMPTION: partial/missing dates (no complete yyyy-mm-dd component) are\n    # NOT imputed; they are treated as missing, which is the conservative\n    # choice when the spec is silent on imputation.\n    \"\"\"\n    if value is None:\n        return None\n    if isinstance(value, float) and np.isnan(value):\n        return None\n    if isinstance(value, pd.Timestamp):\n        return value.date() if not pd.isna(value) else None\n    s = str(value).strip()\n    if s == \"\" or s.lower() in (\"nan\", \"nat\", \"none\"):\n        return None\n    m = _ISO_DATE.match(s)\n    if not m:\n        return None\n    try:\n        return pd.Timestamp(int(m.group(1)), int(m.group(2)), int(m.group(3))).date()\n    except ValueError:\n        return None\n\n\ndef _str_or_none(value):\n    if value is None:\n        return None\n    if isinstance(value, float) and np.isnan(value):\n        return None\n    s = str(value).strip()\n    if s == \"\" or s.lower() in (\"nan\", \"none\"):\n        return None\n    return s\n\n\ndef derive(sources):\n    dm = sources[\"DM\"].copy()\n    ex = sources[\"EX\"].copy()\n    ds = sources[\"DS\"].copy()\n\n    # ------------------------------------------------------------------\n    # Subject spine: one record per subject from DM\n    # ------------------------------------------------------------------\n    out = pd.DataFrame({\n        \"USUBJID\": dm[\"USUBJID\"].map(_str_or_none),\n        \"TRT01P\": dm[\"ARM\"].map(_str_or_none),\n        \"TRT01A\": dm[\"ACTARM\"].map(_str_or_none),\n    })\n    # ASSUMPTION: DM is already one record per subject; de-duplicate defensively.\n    out = out.drop_duplicates(subset=[\"USUBJID\"]).reset_index(drop=True)\n\n    # ------------------------------------------------------------------\n    # TRTSDT / TRTEDT from EX\n    # ASSUMPTION: only records representing an actual administration of study\n    # treatment are considered, i.e. EXDOSE > 0, or EXDOSE = 0 for a placebo\n    # treatment (standard ADaM/admiral convention). Records with a missing\n    # dose or an unparseable date are excluded.\n    # ------------------------------------------------------------------\n    trtsdt_map, trtedt_map = {}, {}\n    if len(ex) > 0:\n        exw = ex.copy()\n        exw[\"_USUBJID\"] = exw[\"USUBJID\"].map(_str_or_none)\n        exw[\"_DOSE\"] = pd.to_numeric(exw[\"EXDOSE\"], errors=\"coerce\")\n        exw[\"_TRT\"] = exw[\"EXTRT\"].map(lambda v: (_str_or_none(v) or \"\").upper())\n        valid = (exw[\"_DOSE\"] > 0) | (\n            (exw[\"_DOSE\"] == 0) & (exw[\"_TRT\"].str.contains(\"PLACEBO\", na=False))\n        )\n        exw = exw[valid]\n\n        st = exw.assign(_D=exw[\"EXSTDTC\"].map(_to_date)).dropna(subset=[\"_D\"])\n        if len(st) > 0:\n            trtsdt_map = st.groupby(\"_USUBJID\")[\"_D\"].min().to_dict()\n\n        en = exw.assign(_D=exw[\"EXENDTC\"].map(_to_date)).dropna(subset=[\"_D\"])\n        if len(en) > 0:\n            trtedt_map = en.groupby(\"_USUBJID\")[\"_D\"].max().to_dict()\n\n    out[\"TRTSDT\"] = out[\"USUBJID\"].map(lambda u: trtsdt_map.get(u)).astype(object)\n    out[\"TRTEDT\"] = out[\"USUBJID\"].map(lambda u: trtedt_map.get(u)).astype(object)\n\n    # ------------------------------------------------------------------\n    # TRTDURD = TRTEDT - TRTSDT + 1 (both dates required)\n    # ------------------------------------------------------------------\n    def _dur(row):\n        s, e = row[\"TRTSDT\"], row[\"TRTEDT\"]\n        if s is None or e is None:\n            return np.nan\n        return float((e - s).days + 1)\n\n    out[\"TRTDURD\"] = out.apply(_dur, axis=1).astype(float)\n\n    # ------------------------------------------------------------------\n    # SAFFL: treated subjects (any exposure to study treatment)\n    # ------------------------------------------------------------------\n    out[\"SAFFL\"] = out[\"TRTSDT\"].map(lambda d: \"Y\" if d is not None else \"N\")\n\n    # ------------------------------------------------------------------\n    # AGEGR1 / RACEGR1\n    # ASSUMPTION: pooled age groups <18 / 18-64 / >64 ; missing AGE -> missing.\n    # ASSUMPTION: pooled race groups are 'White' and 'Non-white' (CDISC pilot\n    # ADSL controlled terminology); missing RACE -> missing.\n    # ------------------------------------------------------------------\n    age_map = {}\n    race_map = {}\n    for _, r in dm.iterrows():\n        u = _str_or_none(r[\"USUBJID\"])\n        if u is None or u in age_map:\n            continue\n        age = pd.to_numeric(r.get(\"AGE\"), errors=\"coerce\")\n        if pd.isna(age):\n            age_map[u] = None\n        elif age < 18:\n            age_map[u] = \"<18\"\n        elif age <= 64:\n            age_map[u] = \"18-64\"\n        else:\n            age_map[u] = \">64\"\n        race = _str_or_none(r.get(\"RACE\"))\n        if race is None:\n            race_map[u] = None\n        elif race.upper() == \"WHITE\":\n            race_map[u] = \"White\"\n        else:\n            race_map[u] = \"Non-white\"\n\n    out[\"AGEGR1\"] = out[\"USUBJID\"].map(lambda u: age_map.get(u)).astype(object)\n    out[\"RACEGR1\"] = out[\"USUBJID\"].map(lambda u: race_map.get(u)).astype(object)\n\n    # ------------------------------------------------------------------\n    # EOSSTT from DS disposition records\n    # ASSUMPTION: the end-of-study status is taken from DS records with\n    # DSCAT = 'DISPOSITION EVENT'. DSDECOD 'COMPLETED' -> 'COMPLETED';\n    # any other reason (including screen failure) -> 'DISCONTINUED';\n    # no disposition record -> 'ONGOING'. EOSSTT is restricted to the\n    # CDISC controlled terms COMPLETED / DISCONTINUED / ONGOING.\n    # If multiple disposition records exist, the last one (highest DSSEQ) is used.\n    # ------------------------------------------------------------------\n    eos_map = {}\n    if len(ds) > 0:\n        dsw = ds.copy()\n        dsw[\"_USUBJID\"] = dsw[\"USUBJID\"].map(_str_or_none)\n        dsw[\"_CAT\"] = dsw[\"DSCAT\"].map(lambda v: (_str_or_none(v) or \"\").upper())\n        dsw[\"_DECOD\"] = dsw[\"DSDECOD\"].map(lambda v: (_str_or_none(v) or \"\").upper())\n        dsw = dsw[dsw[\"_CAT\"] == \"DISPOSITION EVENT\"]\n        if \"DSSEQ\" in dsw.columns:\n            dsw[\"_SEQ\"] = pd.to_numeric(dsw[\"DSSEQ\"], errors=\"coerce\")\n            dsw = dsw.sort_values([\"_USUBJID\", \"_SEQ\"], kind=\"mergesort\")\n        for u, grp in dsw.groupby(\"_USUBJID\", sort=False):\n            decod = grp[\"_DECOD\"].iloc[-1]\n            if decod == \"COMPLETED\":\n                eos_map[u] = \"COMPLETED\"\n            elif decod != \"\":\n                eos_map[u] = \"DISCONTINUED\"\n            else:\n                eos_map[u] = \"ONGOING\"\n\n    out[\"EOSSTT\"] = out[\"USUBJID\"].map(lambda u: eos_map.get(u, \"ONGOING\")).astype(object)\n\n    # ------------------------------------------------------------------\n    # Final structure: exactly the specified variables, sorted by key\n    # ------------------------------------------------------------------\n    cols = [\"USUBJID\", \"TRT01P\", \"TRT01A\", \"TRTSDT\", \"TRTEDT\", \"TRTDURD\",\n            \"SAFFL\", \"AGEGR1\", \"RACEGR1\", \"EOSSTT\"]\n    out = out[cols].sort_values(\"USUBJID\", kind=\"mergesort\").reset_index(drop=True)\n\n    for c in [\"USUBJID\", \"TRT01P\", \"TRT01A\", \"SAFFL\", \"AGEGR1\", \"RACEGR1\", \"EOSSTT\"]:\n        out[c] = out[c].map(lambda v: None if v is None else str(v)).astype(object)\n\n    return out",
        "findings": [
          {
            "code": "VALUE_COUNTS",
            "layer": "CALIBRATED",
            "variable": "EOSSTT",
            "message": "value distribution differs: expected {'DISCONTINUED': 144, 'COMPLETED': 110, '': 52}, got {'DISCONTINUED': 196, 'COMPLETED': 110}",
            "n_rows": 0,
            "examples": [],
            "silent": false,
            "needs_answer_key": true
          },
          {
            "code": "TRUTH_DIFF",
            "layer": "TRUTH",
            "variable": "EOSSTT",
            "message": "52 of 306 values differ from ground truth",
            "n_rows": 52,
            "examples": [
              {
                "key": "01-701-1057",
                "expected": "",
                "got": "DISCONTINUED"
              },
              {
                "key": "01-701-1145",
                "expected": "",
                "got": "DISCONTINUED"
              },
              {
                "key": "01-701-1162",
                "expected": "",
                "got": "DISCONTINUED"
              },
              {
                "key": "01-701-1176",
                "expected": "",
                "got": "DISCONTINUED"
              },
              {
                "key": "01-701-1240",
                "expected": "",
                "got": "DISCONTINUED"
              }
            ],
            "silent": true,
            "needs_answer_key": true
          }
        ],
        "usage": {
          "input_tokens": 4659,
          "output_tokens": 3540,
          "cache_read": 7037,
          "cache_write": 0
        }
      }
    ]
  },
  {
    "dataset": "ADSL",
    "level": "L1",
    "repeat": 1,
    "model": "claude-opus-5",
    "score": 0.9,
    "n_attempts": 4,
    "target_variables": [
      "USUBJID",
      "TRT01P",
      "TRT01A",
      "TRTSDT",
      "TRTEDT",
      "TRTDURD",
      "SAFFL",
      "AGEGR1",
      "RACEGR1",
      "EOSSTT"
    ],
    "clean_variables": [
      "USUBJID",
      "TRT01P",
      "TRT01A",
      "TRTSDT",
      "TRTEDT",
      "TRTDURD",
      "SAFFL",
      "AGEGR1",
      "RACEGR1"
    ],
    "provenance": {
      "USUBJID": [
        "DM.USUBJID"
      ],
      "TRT01P": [
        "DM.ARM"
      ],
      "TRT01A": [
        "DM.ACTARM"
      ],
      "TRTSDT": [
        "EX.USUBJID",
        "EX.EXSTDTC",
        "EX.EXDOSE",
        "EX.EXTRT"
      ],
      "TRTEDT": [
        "EX.USUBJID",
        "EX.EXENDTC",
        "EX.EXDOSE",
        "EX.EXTRT"
      ],
      "TRTDURD": [
        "ADSL.TRTSDT",
        "ADSL.TRTEDT"
      ],
      "SAFFL": [
        "ADSL.TRTSDT"
      ],
      "AGEGR1": [
        "DM.AGE"
      ],
      "RACEGR1": [
        "DM.RACE"
      ],
      "EOSSTT": [
        "DS.USUBJID",
        "DS.DSCAT",
        "DS.DSDECOD"
      ]
    },
    "cost_usd": 0.5237,
    "attempts": [
      {
        "n": 1,
        "executed": true,
        "code": "\"\"\"Derive ADSL (Subject-Level Analysis Dataset) from SDTM DM, EX and DS.\n\nStructure: one record per subject (key: USUBJID).\n\"\"\"\n\nimport pandas as pd\nimport numpy as np\n\nPROVENANCE = {\n    \"USUBJID\": [\"DM.USUBJID\"],\n    \"TRT01P\": [\"DM.ARM\"],\n    \"TRT01A\": [\"DM.ACTARM\"],\n    \"TRTSDT\": [\"EX.USUBJID\", \"EX.EXSTDTC\", \"EX.EXDOSE\", \"EX.EXTRT\"],\n    \"TRTEDT\": [\"EX.USUBJID\", \"EX.EXENDTC\", \"EX.EXDOSE\", \"EX.EXTRT\"],\n    \"TRTDURD\": [\"ADSL.TRTSDT\", \"ADSL.TRTEDT\"],\n    \"SAFFL\": [\"ADSL.TRTSDT\"],\n    \"AGEGR1\": [\"DM.AGE\"],\n    \"RACEGR1\": [\"DM.RACE\"],\n    \"EOSSTT\": [\"DS.USUBJID\", \"DS.DSCAT\", \"DS.DSDECOD\"],\n}\n\n\ndef _to_date(value):\n    \"\"\"Convert an ISO-8601 SDTM date/time string to a datetime.date.\n\n    Returns None for missing values and for partial dates that do not carry a\n    complete (year-month-day) component.\n    \"\"\"\n    # ASSUMPTION: no imputation of partial/missing dates is performed; a date\n    # is only used when the full YYYY-MM-DD component is present.\n    if value is None:\n        return None\n    if isinstance(value, float) and np.isnan(value):\n        return None\n    s = str(value).strip()\n    if s == \"\" or s.lower() in (\"nan\", \"nat\", \"none\"):\n        return None\n    datepart = s[:10]\n    if len(datepart) < 10:\n        return None\n    ts = pd.to_datetime(datepart, format=\"%Y-%m-%d\", errors=\"coerce\")\n    if pd.isna(ts):\n        return None\n    return ts.date()\n\n\ndef _char(value):\n    \"\"\"Return a Python string; missing values become the empty string.\"\"\"\n    # ASSUMPTION: missing character values are represented as \"\" (SAS/ADaM\n    # convention for character missingness).\n    if value is None:\n        return \"\"\n    if isinstance(value, float) and np.isnan(value):\n        return \"\"\n    s = str(value).strip()\n    if s.lower() in (\"nan\", \"none\"):\n        return \"\"\n    return s\n\n\ndef _agegr1(age):\n    if age is None or (isinstance(age, float) and np.isnan(age)) or pd.isna(age):\n        return \"\"\n    age = float(age)\n    # ASSUMPTION: pooled age groups follow the study convention of a single\n    # cut-point at 65 years (\"18-64\" vs \">64\"); ages < 18 are not expected in\n    # this adult study and are reported as \"<18\" if present.\n    if age < 18:\n        return \"<18\"\n    if age < 65:\n        return \"18-64\"\n    return \">64\"\n\n\ndef _racegr1(race):\n    r = _char(race).upper()\n    if r == \"\":\n        return \"\"\n    # ASSUMPTION: pooled race group dichotomises WHITE vs all other reported\n    # races (\"Non-White\").\n    return \"White\" if r == \"WHITE\" else \"Non-White\"\n\n\ndef derive(sources):\n    dm = sources[\"DM\"].copy()\n    ex = sources[\"EX\"].copy()\n    ds = sources[\"DS\"].copy()\n\n    # ---------------- Subject spine + treatment / demographic groupings -----\n    adsl = pd.DataFrame({\"USUBJID\": dm[\"USUBJID\"].map(_char)})\n    adsl[\"TRT01P\"] = dm[\"ARM\"].map(_char).values\n    adsl[\"TRT01A\"] = dm[\"ACTARM\"].map(_char).values\n    adsl[\"AGEGR1\"] = dm[\"AGE\"].map(_agegr1).values\n    adsl[\"RACEGR1\"] = dm[\"RACE\"].map(_racegr1).values\n\n    # ---------------- Treatment start / end dates from EX -------------------\n    # ASSUMPTION: exposure records considered as \"treated\" are those with a\n    # non-zero dose, plus zero-dose records of placebo treatment (placebo is\n    # administered at a dose of 0), consistent with ADaM good practice.\n    exdose = pd.to_numeric(ex[\"EXDOSE\"], errors=\"coerce\")\n    extrt_u = ex[\"EXTRT\"].map(_char).str.upper()\n    treated = (exdose > 0) | ((exdose == 0) & extrt_u.str.contains(\"PLACEBO\", na=False))\n\n    exw = ex.loc[treated].copy()\n    exw[\"_USUBJID\"] = exw[\"USUBJID\"].map(_char)\n    exw[\"_STDT\"] = exw[\"EXSTDTC\"].map(_to_date)\n    exw[\"_ENDT\"] = exw[\"EXENDTC\"].map(_to_date)\n\n    trtsdt_map = (\n        exw.loc[exw[\"_STDT\"].notna()]\n        .groupby(\"_USUBJID\")[\"_STDT\"]\n        .min()\n        .to_dict()\n    )\n    trtedt_map = (\n        exw.loc[exw[\"_ENDT\"].notna()]\n        .groupby(\"_USUBJID\")[\"_ENDT\"]\n        .max()\n        .to_dict()\n    )\n\n    adsl[\"TRTSDT\"] = [trtsdt_map.get(u, None) for u in adsl[\"USUBJID\"]]\n    adsl[\"TRTEDT\"] = [trtedt_map.get(u, None) for u in adsl[\"USUBJID\"]]\n\n    # ---------------- Treatment duration ------------------------------------\n    def _dur(row):\n        s, e = row[\"TRTSDT\"], row[\"TRTEDT\"]\n        if s is None or e is None:\n            return np.nan\n        return float((e - s).days + 1)\n\n    adsl[\"TRTDURD\"] = adsl.apply(_dur, axis=1).astype(float)\n\n    # ---------------- Safety population flag --------------------------------\n    # ASSUMPTION: a subject is in the safety population if there is evidence of\n    # at least one study treatment administration (TRTSDT non-missing).\n    adsl[\"SAFFL\"] = [\"Y\" if s is not None else \"N\" for s in adsl[\"TRTSDT\"]]\n\n    # ---------------- End of study status from DS ---------------------------\n    dsw = ds.copy()\n    dsw[\"_USUBJID\"] = dsw[\"USUBJID\"].map(_char)\n    dsw[\"_DSCAT\"] = dsw[\"DSCAT\"].map(_char).str.upper()\n    dsw[\"_DSDECOD\"] = dsw[\"DSDECOD\"].map(_char).str.upper()\n    dispo = dsw.loc[dsw[\"_DSCAT\"] == \"DISPOSITION EVENT\"]\n\n    has_dispo = set(dispo[\"_USUBJID\"])\n    completed = set(dispo.loc[dispo[\"_DSDECOD\"] == \"COMPLETED\", \"_USUBJID\"])\n\n    # ASSUMPTION: EOSSTT is \"COMPLETED\" when a disposition event of COMPLETED\n    # exists, \"DISCONTINUED\" for any other disposition event, and \"ONGOING\"\n    # when no end-of-study disposition event has been recorded.\n    def _eosstt(u):\n        if u in completed:\n            return \"COMPLETED\"\n        if u in has_dispo:\n            return \"DISCONTINUED\"\n        return \"ONGOING\"\n\n    adsl[\"EOSSTT\"] = [_eosstt(u) for u in adsl[\"USUBJID\"]]\n\n    # ---------------- Finalise ---------------------------------------------\n    # One record per subject (DM is already one record per subject; guard anyway)\n    adsl = adsl.drop_duplicates(subset=[\"USUBJID\"], keep=\"first\")\n    adsl = adsl.sort_values(\"USUBJID\").reset_index(drop=True)\n\n    cols = [\n        \"USUBJID\",\n        \"TRT01P\",\n        \"TRT01A\",\n        \"TRTSDT\",\n        \"TRTEDT\",\n        \"TRTDURD\",\n        \"SAFFL\",\n        \"AGEGR1\",\n        \"RACEGR1\",\n        \"EOSSTT\",\n    ]\n    adsl = adsl[cols]\n\n    for c in [\"USUBJID\", \"TRT01P\", \"TRT01A\", \"SAFFL\", \"AGEGR1\", \"RACEGR1\", \"EOSSTT\"]:\n        adsl[c] = adsl[c].astype(object).map(lambda v: v if isinstance(v, str) else _char(v))\n    for c in [\"TRTSDT\", \"TRTEDT\"]:\n        adsl[c] = adsl[c].astype(object)\n    adsl[\"TRTDURD\"] = pd.to_numeric(adsl[\"TRTDURD\"], errors=\"coerce\")\n\n    return adsl",
        "findings": [
          {
            "code": "CT_VIOLATION",
            "layer": "STRUCTURAL",
            "variable": "RACEGR1",
            "message": "values outside controlled terminology: [\"'Non-White'\"]",
            "n_rows": 33,
            "examples": [
              "Non-White"
            ],
            "silent": false,
            "needs_answer_key": false
          },
          {
            "code": "VALUE_COUNTS",
            "layer": "CALIBRATED",
            "variable": "RACEGR1",
            "message": "value distribution differs: expected {'White': 273, 'Non-white': 33}, got {'White': 273, 'Non-White': 33}",
            "n_rows": 0,
            "examples": [],
            "silent": false,
            "needs_answer_key": true
          },
          {
            "code": "VALUE_COUNTS",
            "layer": "CALIBRATED",
            "variable": "EOSSTT",
            "message": "value distribution differs: expected {'DISCONTINUED': 144, 'COMPLETED': 110, '': 52}, got {'DISCONTINUED': 196, 'COMPLETED': 110}",
            "n_rows": 0,
            "examples": [],
            "silent": false,
            "needs_answer_key": true
          },
          {
            "code": "TRUTH_DIFF",
            "layer": "TRUTH",
            "variable": "RACEGR1",
            "message": "33 of 306 values differ from ground truth",
            "n_rows": 33,
            "examples": [
              {
                "key": "01-701-1176",
                "expected": "Non-white",
                "got": "Non-White"
              },
              {
                "key": "01-701-1203",
                "expected": "Non-white",
                "got": "Non-White"
              },
              {
                "key": "01-701-1240",
                "expected": "Non-white",
                "got": "Non-White"
              },
              {
                "key": "01-701-1275",
                "expected": "Non-white",
                "got": "Non-White"
              },
              {
                "key": "01-701-1363",
                "expected": "Non-white",
                "got": "Non-White"
              }
            ],
            "silent": true,
            "needs_answer_key": true
          },
          {
            "code": "TRUTH_DIFF",
            "layer": "TRUTH",
            "variable": "EOSSTT",
            "message": "52 of 306 values differ from ground truth",
            "n_rows": 52,
            "examples": [
              {
                "key": "01-701-1057",
                "expected": "",
                "got": "DISCONTINUED"
              },
              {
                "key": "01-701-1145",
                "expected": "",
                "got": "DISCONTINUED"
              },
              {
                "key": "01-701-1162",
                "expected": "",
                "got": "DISCONTINUED"
              },
              {
                "key": "01-701-1176",
                "expected": "",
                "got": "DISCONTINUED"
              },
              {
                "key": "01-701-1240",
                "expected": "",
                "got": "DISCONTINUED"
              }
            ],
            "silent": true,
            "needs_answer_key": true
          }
        ],
        "usage": {
          "input_tokens": 959,
          "output_tokens": 5031,
          "cache_read": 7037,
          "cache_write": 0
        }
      },
      {
        "n": 2,
        "executed": true,
        "code": "\"\"\"Derive ADSL (Subject-Level Analysis Dataset) from SDTM DM, EX and DS.\n\nStructure: one record per subject (key: USUBJID).\n\"\"\"\n\nimport pandas as pd\nimport numpy as np\n\nPROVENANCE = {\n    \"USUBJID\": [\"DM.USUBJID\"],\n    \"TRT01P\": [\"DM.ARM\"],\n    \"TRT01A\": [\"DM.ACTARM\"],\n    \"TRTSDT\": [\"EX.USUBJID\", \"EX.EXSTDTC\", \"EX.EXDOSE\", \"EX.EXTRT\"],\n    \"TRTEDT\": [\"EX.USUBJID\", \"EX.EXENDTC\", \"EX.EXDOSE\", \"EX.EXTRT\"],\n    \"TRTDURD\": [\"ADSL.TRTSDT\", \"ADSL.TRTEDT\"],\n    \"SAFFL\": [\"ADSL.TRTSDT\"],\n    \"AGEGR1\": [\"DM.AGE\"],\n    \"RACEGR1\": [\"DM.RACE\"],\n    \"EOSSTT\": [\"DS.USUBJID\", \"DS.DSCAT\", \"DS.DSDECOD\"],\n}\n\n\ndef _to_date(value):\n    \"\"\"Convert an ISO-8601 SDTM date/time string to a datetime.date.\n\n    Returns None for missing values and for partial dates that do not carry a\n    complete (year-month-day) component.\n    \"\"\"\n    # ASSUMPTION: no imputation of partial/missing dates is performed; a date\n    # is only used when the full YYYY-MM-DD component is present.\n    if value is None:\n        return None\n    if isinstance(value, float) and np.isnan(value):\n        return None\n    s = str(value).strip()\n    if s == \"\" or s.lower() in (\"nan\", \"nat\", \"none\"):\n        return None\n    datepart = s[:10]\n    if len(datepart) < 10:\n        return None\n    ts = pd.to_datetime(datepart, format=\"%Y-%m-%d\", errors=\"coerce\")\n    if pd.isna(ts):\n        return None\n    return ts.date()\n\n\ndef _char(value):\n    \"\"\"Return a Python string; missing values become the empty string.\"\"\"\n    # ASSUMPTION: missing character values are represented as \"\" (SAS/ADaM\n    # convention for character missingness).\n    if value is None:\n        return \"\"\n    if isinstance(value, float) and np.isnan(value):\n        return \"\"\n    s = str(value).strip()\n    if s.lower() in (\"nan\", \"none\"):\n        return \"\"\n    return s\n\n\ndef _agegr1(age):\n    if age is None or (isinstance(age, float) and np.isnan(age)) or pd.isna(age):\n        return \"\"\n    age = float(age)\n    # ASSUMPTION: pooled age groups follow the study convention of a single\n    # cut-point at 65 years (\"18-64\" vs \">64\"); ages < 18 are not expected in\n    # this adult study and are reported as \"<18\" if present.\n    if age < 18:\n        return \"<18\"\n    if age < 65:\n        return \"18-64\"\n    return \">64\"\n\n\ndef _racegr1(race):\n    r = _char(race).upper()\n    if r == \"\":\n        return \"\"\n    # ASSUMPTION: pooled race group dichotomises WHITE vs all other reported\n    # races, using the study controlled terminology values \"White\" / \"Other\".\n    return \"White\" if r == \"WHITE\" else \"Other\"\n\n\ndef derive(sources):\n    dm = sources[\"DM\"].copy()\n    ex = sources[\"EX\"].copy()\n    ds = sources[\"DS\"].copy()\n\n    # ---------------- Subject spine + treatment / demographic groupings -----\n    adsl = pd.DataFrame({\"USUBJID\": dm[\"USUBJID\"].map(_char)})\n    adsl[\"TRT01P\"] = dm[\"ARM\"].map(_char).values\n    adsl[\"TRT01A\"] = dm[\"ACTARM\"].map(_char).values\n    adsl[\"AGEGR1\"] = dm[\"AGE\"].map(_agegr1).values\n    adsl[\"RACEGR1\"] = dm[\"RACE\"].map(_racegr1).values\n\n    # ---------------- Treatment start / end dates from EX -------------------\n    # ASSUMPTION: exposure records considered as \"treated\" are those with a\n    # non-zero dose, plus zero-dose records of placebo treatment (placebo is\n    # administered at a dose of 0), consistent with ADaM good practice.\n    exdose = pd.to_numeric(ex[\"EXDOSE\"], errors=\"coerce\")\n    extrt_u = ex[\"EXTRT\"].map(_char).str.upper()\n    treated = (exdose > 0) | ((exdose == 0) & extrt_u.str.contains(\"PLACEBO\", na=False))\n\n    exw = ex.loc[treated].copy()\n    exw[\"_USUBJID\"] = exw[\"USUBJID\"].map(_char)\n    exw[\"_STDT\"] = exw[\"EXSTDTC\"].map(_to_date)\n    exw[\"_ENDT\"] = exw[\"EXENDTC\"].map(_to_date)\n\n    trtsdt_map = (\n        exw.loc[exw[\"_STDT\"].notna()]\n        .groupby(\"_USUBJID\")[\"_STDT\"]\n        .min()\n        .to_dict()\n    )\n    trtedt_map = (\n        exw.loc[exw[\"_ENDT\"].notna()]\n        .groupby(\"_USUBJID\")[\"_ENDT\"]\n        .max()\n        .to_dict()\n    )\n\n    adsl[\"TRTSDT\"] = [trtsdt_map.get(u, None) for u in adsl[\"USUBJID\"]]\n    adsl[\"TRTEDT\"] = [trtedt_map.get(u, None) for u in adsl[\"USUBJID\"]]\n\n    # ---------------- Treatment duration ------------------------------------\n    def _dur(row):\n        s, e = row[\"TRTSDT\"], row[\"TRTEDT\"]\n        if s is None or e is None:\n            return np.nan\n        return float((e - s).days + 1)\n\n    adsl[\"TRTDURD\"] = adsl.apply(_dur, axis=1).astype(float)\n\n    # ---------------- Safety population flag --------------------------------\n    # ASSUMPTION: a subject is in the safety population if there is evidence of\n    # at least one study treatment administration (TRTSDT non-missing).\n    adsl[\"SAFFL\"] = [\"Y\" if s is not None else \"N\" for s in adsl[\"TRTSDT\"]]\n\n    # ---------------- End of study status from DS ---------------------------\n    dsw = ds.copy()\n    dsw[\"_USUBJID\"] = dsw[\"USUBJID\"].map(_char)\n    dsw[\"_DSCAT\"] = dsw[\"DSCAT\"].map(_char).str.upper()\n    dsw[\"_DSDECOD\"] = dsw[\"DSDECOD\"].map(_char).str.upper()\n    dispo = dsw.loc[dsw[\"_DSCAT\"] == \"DISPOSITION EVENT\"]\n\n    has_dispo = set(dispo[\"_USUBJID\"])\n    completed = set(dispo.loc[dispo[\"_DSDECOD\"] == \"COMPLETED\", \"_USUBJID\"])\n\n    # ASSUMPTION: EOSSTT is \"COMPLETED\" when a disposition event of COMPLETED\n    # exists, \"DISCONTINUED\" for any other disposition event, and \"ONGOING\"\n    # when no end-of-study disposition event has been recorded.\n    def _eosstt(u):\n        if u in completed:\n            return \"COMPLETED\"\n        if u in has_dispo:\n            return \"DISCONTINUED\"\n        return \"ONGOING\"\n\n    adsl[\"EOSSTT\"] = [_eosstt(u) for u in adsl[\"USUBJID\"]]\n\n    # ---------------- Finalise ---------------------------------------------\n    # One record per subject (DM is already one record per subject; guard anyway)\n    adsl = adsl.drop_duplicates(subset=[\"USUBJID\"], keep=\"first\")\n    adsl = adsl.sort_values(\"USUBJID\").reset_index(drop=True)\n\n    cols = [\n        \"USUBJID\",\n        \"TRT01P\",\n        \"TRT01A\",\n        \"TRTSDT\",\n        \"TRTEDT\",\n        \"TRTDURD\",\n        \"SAFFL\",\n        \"AGEGR1\",\n        \"RACEGR1\",\n        \"EOSSTT\",\n    ]\n    adsl = adsl[cols]\n\n    for c in [\"USUBJID\", \"TRT01P\", \"TRT01A\", \"SAFFL\", \"AGEGR1\", \"RACEGR1\", \"EOSSTT\"]:\n        adsl[c] = adsl[c].astype(object).map(lambda v: v if isinstance(v, str) else _char(v))\n    for c in [\"TRTSDT\", \"TRTEDT\"]:\n        adsl[c] = adsl[c].astype(object)\n    adsl[\"TRTDURD\"] = pd.to_numeric(adsl[\"TRTDURD\"], errors=\"coerce\")\n\n    return adsl",
        "findings": [
          {
            "code": "CT_VIOLATION",
            "layer": "STRUCTURAL",
            "variable": "RACEGR1",
            "message": "values outside controlled terminology: [\"'Other'\"]",
            "n_rows": 33,
            "examples": [
              "Other"
            ],
            "silent": false,
            "needs_answer_key": false
          },
          {
            "code": "VALUE_COUNTS",
            "layer": "CALIBRATED",
            "variable": "RACEGR1",
            "message": "value distribution differs: expected {'White': 273, 'Non-white': 33}, got {'White': 273, 'Other': 33}",
            "n_rows": 0,
            "examples": [],
            "silent": false,
            "needs_answer_key": true
          },
          {
            "code": "VALUE_COUNTS",
            "layer": "CALIBRATED",
            "variable": "EOSSTT",
            "message": "value distribution differs: expected {'DISCONTINUED': 144, 'COMPLETED': 110, '': 52}, got {'DISCONTINUED': 196, 'COMPLETED': 110}",
            "n_rows": 0,
            "examples": [],
            "silent": false,
            "needs_answer_key": true
          },
          {
            "code": "TRUTH_DIFF",
            "layer": "TRUTH",
            "variable": "RACEGR1",
            "message": "33 of 306 values differ from ground truth",
            "n_rows": 33,
            "examples": [
              {
                "key": "01-701-1176",
                "expected": "Non-white",
                "got": "Other"
              },
              {
                "key": "01-701-1203",
                "expected": "Non-white",
                "got": "Other"
              },
              {
                "key": "01-701-1240",
                "expected": "Non-white",
                "got": "Other"
              },
              {
                "key": "01-701-1275",
                "expected": "Non-white",
                "got": "Other"
              },
              {
                "key": "01-701-1363",
                "expected": "Non-white",
                "got": "Other"
              }
            ],
            "silent": true,
            "needs_answer_key": true
          },
          {
            "code": "TRUTH_DIFF",
            "layer": "TRUTH",
            "variable": "EOSSTT",
            "message": "52 of 306 values differ from ground truth",
            "n_rows": 52,
            "examples": [
              {
                "key": "01-701-1057",
                "expected": "",
                "got": "DISCONTINUED"
              },
              {
                "key": "01-701-1145",
                "expected": "",
                "got": "DISCONTINUED"
              },
              {
                "key": "01-701-1162",
                "expected": "",
                "got": "DISCONTINUED"
              },
              {
                "key": "01-701-1176",
                "expected": "",
                "got": "DISCONTINUED"
              },
              {
                "key": "01-701-1240",
                "expected": "",
                "got": "DISCONTINUED"
              }
            ],
            "silent": true,
            "needs_answer_key": true
          }
        ],
        "usage": {
          "input_tokens": 4091,
          "output_tokens": 3035,
          "cache_read": 7037,
          "cache_write": 0
        }
      },
      {
        "n": 3,
        "executed": true,
        "code": "\"\"\"Derive ADSL (Subject-Level Analysis Dataset) from SDTM DM, EX and DS.\n\nStructure: one record per subject (key: USUBJID).\n\"\"\"\n\nimport pandas as pd\nimport numpy as np\n\nPROVENANCE = {\n    \"USUBJID\": [\"DM.USUBJID\"],\n    \"TRT01P\": [\"DM.ARM\"],\n    \"TRT01A\": [\"DM.ACTARM\"],\n    \"TRTSDT\": [\"EX.USUBJID\", \"EX.EXSTDTC\", \"EX.EXDOSE\", \"EX.EXTRT\"],\n    \"TRTEDT\": [\"EX.USUBJID\", \"EX.EXENDTC\", \"EX.EXDOSE\", \"EX.EXTRT\"],\n    \"TRTDURD\": [\"ADSL.TRTSDT\", \"ADSL.TRTEDT\"],\n    \"SAFFL\": [\"ADSL.TRTSDT\"],\n    \"AGEGR1\": [\"DM.AGE\"],\n    \"RACEGR1\": [\"DM.RACE\"],\n    \"EOSSTT\": [\"DS.USUBJID\", \"DS.DSCAT\", \"DS.DSDECOD\"],\n}\n\n# ASSUMPTION: RACEGR1 controlled terminology mirrors the reported RACE\n# categories rendered in mixed case (no collapsing into a \"Non-White\"/\"Other\"\n# bucket), as seen in the study's analysis conventions.\n_RACEGR1_MAP = {\n    \"WHITE\": \"White\",\n    \"BLACK OR AFRICAN AMERICAN\": \"Black or African American\",\n    \"AMERICAN INDIAN OR ALASKA NATIVE\": \"American Indian or Alaska Native\",\n    \"ASIAN\": \"Asian\",\n    \"NATIVE HAWAIIAN OR OTHER PACIFIC ISLANDER\":\n        \"Native Hawaiian or Other Pacific Islander\",\n    \"MULTIPLE\": \"Multiple\",\n    \"OTHER\": \"Other\",\n    \"UNKNOWN\": \"Unknown\",\n    \"NOT REPORTED\": \"Not Reported\",\n}\n\n\ndef _to_date(value):\n    \"\"\"Convert an ISO-8601 SDTM date/time string to a datetime.date.\n\n    Returns None for missing values and for partial dates that do not carry a\n    complete (year-month-day) component.\n    \"\"\"\n    # ASSUMPTION: no imputation of partial/missing dates is performed; a date\n    # is only used when the full YYYY-MM-DD component is present.\n    if value is None:\n        return None\n    if isinstance(value, float) and np.isnan(value):\n        return None\n    s = str(value).strip()\n    if s == \"\" or s.lower() in (\"nan\", \"nat\", \"none\"):\n        return None\n    datepart = s[:10]\n    if len(datepart) < 10:\n        return None\n    ts = pd.to_datetime(datepart, format=\"%Y-%m-%d\", errors=\"coerce\")\n    if pd.isna(ts):\n        return None\n    return ts.date()\n\n\ndef _char(value):\n    \"\"\"Return a Python string; missing values become the empty string.\"\"\"\n    # ASSUMPTION: missing character values are represented as \"\" (SAS/ADaM\n    # convention for character missingness).\n    if value is None:\n        return \"\"\n    if isinstance(value, float) and np.isnan(value):\n        return \"\"\n    s = str(value).strip()\n    if s.lower() in (\"nan\", \"none\"):\n        return \"\"\n    return s\n\n\ndef _agegr1(age):\n    if age is None or (isinstance(age, float) and np.isnan(age)) or pd.isna(age):\n        return \"\"\n    age = float(age)\n    # ASSUMPTION: pooled age groups follow the study convention of a single\n    # cut-point at 65 years (\"18-64\" vs \">64\"); ages < 18 are not expected in\n    # this adult study and are reported as \"<18\" if present.\n    if age < 18:\n        return \"<18\"\n    if age < 65:\n        return \"18-64\"\n    return \">64\"\n\n\ndef _titlecase_race(r):\n    small = {\"or\", \"of\", \"and\"}\n    words = r.lower().split()\n    out = []\n    for i, w in enumerate(words):\n        if i > 0 and w in small:\n            out.append(w)\n        else:\n            out.append(w[:1].upper() + w[1:])\n    return \" \".join(out)\n\n\ndef _racegr1(race):\n    r = _char(race).upper()\n    if r == \"\":\n        return \"\"\n    if r in _RACEGR1_MAP:\n        return _RACEGR1_MAP[r]\n    return _titlecase_race(r)\n\n\ndef derive(sources):\n    dm = sources[\"DM\"].copy()\n    ex = sources[\"EX\"].copy()\n    ds = sources[\"DS\"].copy()\n\n    # ---------------- Subject spine + treatment / demographic groupings -----\n    adsl = pd.DataFrame({\"USUBJID\": dm[\"USUBJID\"].map(_char)})\n    adsl[\"TRT01P\"] = dm[\"ARM\"].map(_char).values\n    adsl[\"TRT01A\"] = dm[\"ACTARM\"].map(_char).values\n    adsl[\"AGEGR1\"] = dm[\"AGE\"].map(_agegr1).values\n    adsl[\"RACEGR1\"] = dm[\"RACE\"].map(_racegr1).values\n\n    # ---------------- Treatment start / end dates from EX -------------------\n    # ASSUMPTION: exposure records considered as \"treated\" are those with a\n    # non-zero dose, plus zero-dose records of placebo treatment (placebo is\n    # administered at a dose of 0), consistent with ADaM good practice.\n    exdose = pd.to_numeric(ex[\"EXDOSE\"], errors=\"coerce\")\n    extrt_u = ex[\"EXTRT\"].map(_char).str.upper()\n    treated = (exdose > 0) | ((exdose == 0) & extrt_u.str.contains(\"PLACEBO\", na=False))\n\n    exw = ex.loc[treated].copy()\n    exw[\"_USUBJID\"] = exw[\"USUBJID\"].map(_char)\n    exw[\"_STDT\"] = exw[\"EXSTDTC\"].map(_to_date)\n    exw[\"_ENDT\"] = exw[\"EXENDTC\"].map(_to_date)\n\n    trtsdt_map = (\n        exw.loc[exw[\"_STDT\"].notna()]\n        .groupby(\"_USUBJID\")[\"_STDT\"]\n        .min()\n        .to_dict()\n    )\n    trtedt_map = (\n        exw.loc[exw[\"_ENDT\"].notna()]\n        .groupby(\"_USUBJID\")[\"_ENDT\"]\n        .max()\n        .to_dict()\n    )\n\n    adsl[\"TRTSDT\"] = [trtsdt_map.get(u, None) for u in adsl[\"USUBJID\"]]\n    adsl[\"TRTEDT\"] = [trtedt_map.get(u, None) for u in adsl[\"USUBJID\"]]\n\n    # ---------------- Treatment duration ------------------------------------\n    def _dur(row):\n        s, e = row[\"TRTSDT\"], row[\"TRTEDT\"]\n        if s is None or e is None:\n            return np.nan\n        return float((e - s).days + 1)\n\n    adsl[\"TRTDURD\"] = adsl.apply(_dur, axis=1).astype(float)\n\n    # ---------------- Safety population flag --------------------------------\n    # ASSUMPTION: a subject is in the safety population if there is evidence of\n    # at least one study treatment administration (TRTSDT non-missing).\n    adsl[\"SAFFL\"] = [\"Y\" if s is not None else \"N\" for s in adsl[\"TRTSDT\"]]\n\n    # ---------------- End of study status from DS ---------------------------\n    dsw = ds.copy()\n    dsw[\"_USUBJID\"] = dsw[\"USUBJID\"].map(_char)\n    dsw[\"_DSCAT\"] = dsw[\"DSCAT\"].map(_char).str.upper()\n    dsw[\"_DSDECOD\"] = dsw[\"DSDECOD\"].map(_char).str.upper()\n    dispo = dsw.loc[dsw[\"_DSCAT\"] == \"DISPOSITION EVENT\"]\n\n    has_dispo = set(dispo[\"_USUBJID\"])\n    completed = set(dispo.loc[dispo[\"_DSDECOD\"] == \"COMPLETED\", \"_USUBJID\"])\n\n    # ASSUMPTION: EOSSTT is \"COMPLETED\" when a disposition event of COMPLETED\n    # exists, \"DISCONTINUED\" for any other disposition event, and \"ONGOING\"\n    # when no end-of-study disposition event has been recorded.\n    def _eosstt(u):\n        if u in completed:\n            return \"COMPLETED\"\n        if u in has_dispo:\n            return \"DISCONTINUED\"\n        return \"ONGOING\"\n\n    adsl[\"EOSSTT\"] = [_eosstt(u) for u in adsl[\"USUBJID\"]]\n\n    # ---------------- Finalise ---------------------------------------------\n    # One record per subject (DM is already one record per subject; guard anyway)\n    adsl = adsl.drop_duplicates(subset=[\"USUBJID\"], keep=\"first\")\n    adsl = adsl.sort_values(\"USUBJID\").reset_index(drop=True)\n\n    cols = [\n        \"USUBJID\",\n        \"TRT01P\",\n        \"TRT01A\",\n        \"TRTSDT\",\n        \"TRTEDT\",\n        \"TRTDURD\",\n        \"SAFFL\",\n        \"AGEGR1\",\n        \"RACEGR1\",\n        \"EOSSTT\",\n    ]\n    adsl = adsl[cols]\n\n    for c in [\"USUBJID\", \"TRT01P\", \"TRT01A\", \"SAFFL\", \"AGEGR1\", \"RACEGR1\", \"EOSSTT\"]:\n        adsl[c] = adsl[c].astype(object).map(lambda v: v if isinstance(v, str) else _char(v))\n    for c in [\"TRTSDT\", \"TRTEDT\"]:\n        adsl[c] = adsl[c].astype(object)\n    adsl[\"TRTDURD\"] = pd.to_numeric(adsl[\"TRTDURD\"], errors=\"coerce\")\n\n    return adsl",
        "findings": [
          {
            "code": "CT_VIOLATION",
            "layer": "STRUCTURAL",
            "variable": "RACEGR1",
            "message": "values outside controlled terminology: [\"'American Indian or Alaska Native'\", \"'Asian'\", \"'Black or African American'\"]",
            "n_rows": 33,
            "examples": [
              "American Indian or Alaska Native",
              "Asian",
              "Black or African American"
            ],
            "silent": false,
            "needs_answer_key": false
          },
          {
            "code": "VALUE_COUNTS",
            "layer": "CALIBRATED",
            "variable": "RACEGR1",
            "message": "value distribution differs: expected {'White': 273, 'Non-white': 33}, got {'White': 273, 'Black or African American': 29, 'American Indian or Alaska Native': 2, 'Asian': 2}",
            "n_rows": 0,
            "examples": [],
            "silent": false,
            "needs_answer_key": true
          },
          {
            "code": "VALUE_COUNTS",
            "layer": "CALIBRATED",
            "variable": "EOSSTT",
            "message": "value distribution differs: expected {'DISCONTINUED': 144, 'COMPLETED': 110, '': 52}, got {'DISCONTINUED': 196, 'COMPLETED': 110}",
            "n_rows": 0,
            "examples": [],
            "silent": false,
            "needs_answer_key": true
          },
          {
            "code": "TRUTH_DIFF",
            "layer": "TRUTH",
            "variable": "RACEGR1",
            "message": "33 of 306 values differ from ground truth",
            "n_rows": 33,
            "examples": [
              {
                "key": "01-701-1176",
                "expected": "Non-white",
                "got": "American Indian or Alaska Native"
              },
              {
                "key": "01-701-1203",
                "expected": "Non-white",
                "got": "Black or African American"
              },
              {
                "key": "01-701-1240",
                "expected": "Non-white",
                "got": "Black or African American"
              },
              {
                "key": "01-701-1275",
                "expected": "Non-white",
                "got": "American Indian or Alaska Native"
              },
              {
                "key": "01-701-1363",
                "expected": "Non-white",
                "got": "Black or African American"
              }
            ],
            "silent": true,
            "needs_answer_key": true
          },
          {
            "code": "TRUTH_DIFF",
            "layer": "TRUTH",
            "variable": "EOSSTT",
            "message": "52 of 306 values differ from ground truth",
            "n_rows": 52,
            "examples": [
              {
                "key": "01-701-1057",
                "expected": "",
                "got": "DISCONTINUED"
              },
              {
                "key": "01-701-1145",
                "expected": "",
                "got": "DISCONTINUED"
              },
              {
                "key": "01-701-1162",
                "expected": "",
                "got": "DISCONTINUED"
              },
              {
                "key": "01-701-1176",
                "expected": "",
                "got": "DISCONTINUED"
              },
              {
                "key": "01-701-1240",
                "expected": "",
                "got": "DISCONTINUED"
              }
            ],
            "silent": true,
            "needs_answer_key": true
          }
        ],
        "usage": {
          "input_tokens": 7229,
          "output_tokens": 4205,
          "cache_read": 7037,
          "cache_write": 0
        }
      },
      {
        "n": 4,
        "executed": true,
        "code": "\"\"\"Derive ADSL (Subject-Level Analysis Dataset) from SDTM DM, EX and DS.\n\nStructure: one record per subject (key: USUBJID).\n\"\"\"\n\nimport pandas as pd\nimport numpy as np\n\nPROVENANCE = {\n    \"USUBJID\": [\"DM.USUBJID\"],\n    \"TRT01P\": [\"DM.ARM\"],\n    \"TRT01A\": [\"DM.ACTARM\"],\n    \"TRTSDT\": [\"EX.USUBJID\", \"EX.EXSTDTC\", \"EX.EXDOSE\", \"EX.EXTRT\"],\n    \"TRTEDT\": [\"EX.USUBJID\", \"EX.EXENDTC\", \"EX.EXDOSE\", \"EX.EXTRT\"],\n    \"TRTDURD\": [\"ADSL.TRTSDT\", \"ADSL.TRTEDT\"],\n    \"SAFFL\": [\"ADSL.TRTSDT\"],\n    \"AGEGR1\": [\"DM.AGE\"],\n    \"RACEGR1\": [\"DM.RACE\"],\n    \"EOSSTT\": [\"DS.USUBJID\", \"DS.DSCAT\", \"DS.DSDECOD\"],\n}\n\n\ndef _to_date(value):\n    \"\"\"Convert an ISO-8601 SDTM date/time string to a datetime.date.\n\n    Returns None for missing values and for partial dates that do not carry a\n    complete (year-month-day) component.\n    \"\"\"\n    # ASSUMPTION: no imputation of partial/missing dates is performed; a date\n    # is only used when the full YYYY-MM-DD component is present.\n    if value is None:\n        return None\n    if isinstance(value, float) and np.isnan(value):\n        return None\n    s = str(value).strip()\n    if s == \"\" or s.lower() in (\"nan\", \"nat\", \"none\"):\n        return None\n    datepart = s[:10]\n    if len(datepart) < 10:\n        return None\n    ts = pd.to_datetime(datepart, format=\"%Y-%m-%d\", errors=\"coerce\")\n    if pd.isna(ts):\n        return None\n    return ts.date()\n\n\ndef _char(value):\n    \"\"\"Return a Python string; missing values become the empty string.\"\"\"\n    # ASSUMPTION: missing character values are represented as \"\" (SAS/ADaM\n    # convention for character missingness).\n    if value is None:\n        return \"\"\n    if isinstance(value, float) and np.isnan(value):\n        return \"\"\n    s = str(value).strip()\n    if s.lower() in (\"nan\", \"none\"):\n        return \"\"\n    return s\n\n\ndef _agegr1(age):\n    if age is None or (isinstance(age, float) and np.isnan(age)) or pd.isna(age):\n        return \"\"\n    age = float(age)\n    # ASSUMPTION: pooled age groups follow the study convention of a single\n    # cut-point at 65 years (\"18-64\" vs \">64\"); ages < 18 are not expected in\n    # this adult study and are reported as \"<18\" if present.\n    if age < 18:\n        return \"<18\"\n    if age < 65:\n        return \"18-64\"\n    return \">64\"\n\n\ndef _racegr1(race):\n    r = _char(race).upper()\n    if r == \"\":\n        return \"\"\n    # ASSUMPTION: pooled race group is a dichotomy of WHITE vs all other\n    # reported races, using the study CT values \"White\" / \"Non-white\".\n    return \"White\" if r == \"WHITE\" else \"Non-white\"\n\n\ndef derive(sources):\n    dm = sources[\"DM\"].copy()\n    ex = sources[\"EX\"].copy()\n    ds = sources[\"DS\"].copy()\n\n    # ---------------- Subject spine + treatment / demographic groupings -----\n    adsl = pd.DataFrame({\"USUBJID\": dm[\"USUBJID\"].map(_char)})\n    adsl[\"TRT01P\"] = dm[\"ARM\"].map(_char).values\n    adsl[\"TRT01A\"] = dm[\"ACTARM\"].map(_char).values\n    adsl[\"AGEGR1\"] = dm[\"AGE\"].map(_agegr1).values\n    adsl[\"RACEGR1\"] = dm[\"RACE\"].map(_racegr1).values\n\n    # ---------------- Treatment start / end dates from EX -------------------\n    # ASSUMPTION: exposure records considered as \"treated\" are those with a\n    # non-zero dose, plus zero-dose records of placebo treatment (placebo is\n    # administered at a dose of 0), consistent with ADaM good practice.\n    exdose = pd.to_numeric(ex[\"EXDOSE\"], errors=\"coerce\")\n    extrt_u = ex[\"EXTRT\"].map(_char).str.upper()\n    treated = (exdose > 0) | ((exdose == 0) & extrt_u.str.contains(\"PLACEBO\", na=False))\n\n    exw = ex.loc[treated].copy()\n    exw[\"_USUBJID\"] = exw[\"USUBJID\"].map(_char)\n    exw[\"_STDT\"] = exw[\"EXSTDTC\"].map(_to_date)\n    exw[\"_ENDT\"] = exw[\"EXENDTC\"].map(_to_date)\n\n    trtsdt_map = (\n        exw.loc[exw[\"_STDT\"].notna()]\n        .groupby(\"_USUBJID\")[\"_STDT\"]\n        .min()\n        .to_dict()\n    )\n    trtedt_map = (\n        exw.loc[exw[\"_ENDT\"].notna()]\n        .groupby(\"_USUBJID\")[\"_ENDT\"]\n        .max()\n        .to_dict()\n    )\n\n    adsl[\"TRTSDT\"] = [trtsdt_map.get(u, None) for u in adsl[\"USUBJID\"]]\n    adsl[\"TRTEDT\"] = [trtedt_map.get(u, None) for u in adsl[\"USUBJID\"]]\n\n    # ---------------- Treatment duration ------------------------------------\n    def _dur(row):\n        s, e = row[\"TRTSDT\"], row[\"TRTEDT\"]\n        if s is None or e is None:\n            return np.nan\n        return float((e - s).days + 1)\n\n    adsl[\"TRTDURD\"] = adsl.apply(_dur, axis=1).astype(float)\n\n    # ---------------- Safety population flag --------------------------------\n    # ASSUMPTION: a subject is in the safety population if there is evidence of\n    # at least one study treatment administration (TRTSDT non-missing).\n    adsl[\"SAFFL\"] = [\"Y\" if s is not None else \"N\" for s in adsl[\"TRTSDT\"]]\n\n    # ---------------- End of study status from DS ---------------------------\n    dsw = ds.copy()\n    dsw[\"_USUBJID\"] = dsw[\"USUBJID\"].map(_char)\n    dsw[\"_DSCAT\"] = dsw[\"DSCAT\"].map(_char).str.upper()\n    dsw[\"_DSDECOD\"] = dsw[\"DSDECOD\"].map(_char).str.upper()\n    dispo = dsw.loc[dsw[\"_DSCAT\"] == \"DISPOSITION EVENT\"]\n\n    has_dispo = set(dispo[\"_USUBJID\"])\n    completed = set(dispo.loc[dispo[\"_DSDECOD\"] == \"COMPLETED\", \"_USUBJID\"])\n\n    # ASSUMPTION: EOSSTT is \"COMPLETED\" when a disposition event of COMPLETED\n    # exists, \"DISCONTINUED\" for any other disposition event, and \"ONGOING\"\n    # when no end-of-study disposition event has been recorded.\n    def _eosstt(u):\n        if u in completed:\n            return \"COMPLETED\"\n        if u in has_dispo:\n            return \"DISCONTINUED\"\n        return \"ONGOING\"\n\n    adsl[\"EOSSTT\"] = [_eosstt(u) for u in adsl[\"USUBJID\"]]\n\n    # ---------------- Finalise ---------------------------------------------\n    # One record per subject (DM is already one record per subject; guard anyway)\n    adsl = adsl.drop_duplicates(subset=[\"USUBJID\"], keep=\"first\")\n    adsl = adsl.sort_values(\"USUBJID\").reset_index(drop=True)\n\n    cols = [\n        \"USUBJID\",\n        \"TRT01P\",\n        \"TRT01A\",\n        \"TRTSDT\",\n        \"TRTEDT\",\n        \"TRTDURD\",\n        \"SAFFL\",\n        \"AGEGR1\",\n        \"RACEGR1\",\n        \"EOSSTT\",\n    ]\n    adsl = adsl[cols]\n\n    for c in [\"USUBJID\", \"TRT01P\", \"TRT01A\", \"SAFFL\", \"AGEGR1\", \"RACEGR1\", \"EOSSTT\"]:\n        adsl[c] = adsl[c].astype(object).map(lambda v: v if isinstance(v, str) else _char(v))\n    for c in [\"TRTSDT\", \"TRTEDT\"]:\n        adsl[c] = adsl[c].astype(object)\n    adsl[\"TRTDURD\"] = pd.to_numeric(adsl[\"TRTDURD\"], errors=\"coerce\")\n\n    return adsl",
        "findings": [
          {
            "code": "VALUE_COUNTS",
            "layer": "CALIBRATED",
            "variable": "EOSSTT",
            "message": "value distribution differs: expected {'DISCONTINUED': 144, 'COMPLETED': 110, '': 52}, got {'DISCONTINUED': 196, 'COMPLETED': 110}",
            "n_rows": 0,
            "examples": [],
            "silent": false,
            "needs_answer_key": true
          },
          {
            "code": "TRUTH_DIFF",
            "layer": "TRUTH",
            "variable": "EOSSTT",
            "message": "52 of 306 values differ from ground truth",
            "n_rows": 52,
            "examples": [
              {
                "key": "01-701-1057",
                "expected": "",
                "got": "DISCONTINUED"
              },
              {
                "key": "01-701-1145",
                "expected": "",
                "got": "DISCONTINUED"
              },
              {
                "key": "01-701-1162",
                "expected": "",
                "got": "DISCONTINUED"
              },
              {
                "key": "01-701-1176",
                "expected": "",
                "got": "DISCONTINUED"
              },
              {
                "key": "01-701-1240",
                "expected": "",
                "got": "DISCONTINUED"
              }
            ],
            "silent": true,
            "needs_answer_key": true
          }
        ],
        "usage": {
          "input_tokens": 10816,
          "output_tokens": 3497,
          "cache_read": 7037,
          "cache_write": 0
        }
      }
    ]
  },
  {
    "dataset": "ADSL",
    "level": "L1",
    "repeat": 2,
    "model": "claude-opus-5",
    "score": 0.9,
    "n_attempts": 2,
    "target_variables": [
      "USUBJID",
      "TRT01P",
      "TRT01A",
      "TRTSDT",
      "TRTEDT",
      "TRTDURD",
      "SAFFL",
      "AGEGR1",
      "RACEGR1",
      "EOSSTT"
    ],
    "clean_variables": [
      "USUBJID",
      "TRT01P",
      "TRT01A",
      "TRTSDT",
      "TRTEDT",
      "TRTDURD",
      "SAFFL",
      "AGEGR1",
      "RACEGR1"
    ],
    "provenance": {
      "USUBJID": [
        "DM.USUBJID"
      ],
      "TRT01P": [
        "DM.ARM"
      ],
      "TRT01A": [
        "DM.ACTARM"
      ],
      "TRTSDT": [
        "EX.USUBJID",
        "EX.EXSTDTC",
        "EX.EXDOSE",
        "EX.EXTRT"
      ],
      "TRTEDT": [
        "EX.USUBJID",
        "EX.EXENDTC",
        "EX.EXDOSE",
        "EX.EXTRT"
      ],
      "TRTDURD": [
        "ADSL.TRTSDT",
        "ADSL.TRTEDT"
      ],
      "SAFFL": [
        "ADSL.TRTSDT"
      ],
      "AGEGR1": [
        "DM.AGE"
      ],
      "RACEGR1": [
        "DM.RACE"
      ],
      "EOSSTT": [
        "DS.USUBJID",
        "DS.DSCAT",
        "DS.DSDECOD"
      ]
    },
    "cost_usd": 0.2353,
    "attempts": [
      {
        "n": 1,
        "executed": true,
        "code": "\"\"\"\nADSL - Subject-Level Analysis Dataset\nDerived from SDTM DM, EX and DS.\n\nOne record per subject (key: USUBJID).\n\"\"\"\n\nimport pandas as pd\nimport numpy as np\nfrom datetime import date\n\n\nPROVENANCE = {\n    \"USUBJID\": [\"DM.USUBJID\"],\n    \"TRT01P\": [\"DM.ARM\"],\n    \"TRT01A\": [\"DM.ACTARM\"],\n    \"TRTSDT\": [\"EX.USUBJID\", \"EX.EXSTDTC\", \"EX.EXDOSE\", \"EX.EXTRT\"],\n    \"TRTEDT\": [\"EX.USUBJID\", \"EX.EXENDTC\", \"EX.EXDOSE\", \"EX.EXTRT\"],\n    \"TRTDURD\": [\"ADSL.TRTSDT\", \"ADSL.TRTEDT\"],\n    \"SAFFL\": [\"ADSL.TRTSDT\"],\n    \"AGEGR1\": [\"DM.AGE\"],\n    \"RACEGR1\": [\"DM.RACE\"],\n    \"EOSSTT\": [\"DS.USUBJID\", \"DS.DSCAT\", \"DS.DSDECOD\"],\n}\n\n\n# ---------------------------------------------------------------- helpers ----\ndef _iso_to_date(value):\n    \"\"\"Convert an ISO-8601 SDTM date/time string to a datetime.date.\n\n    Returns None for missing values and for partial dates that do not carry a\n    complete year-month-day component.\n    \"\"\"\n    # ASSUMPTION: no date imputation is performed for partial/missing dates;\n    # the specification does not request imputation flags, so incomplete dates\n    # are treated as missing rather than being imputed.\n    if value is None:\n        return None\n    if isinstance(value, float) and np.isnan(value):\n        return None\n    if isinstance(value, date) and not isinstance(value, pd.Timestamp):\n        return value\n    if isinstance(value, pd.Timestamp):\n        if pd.isna(value):\n            return None\n        return value.date()\n    s = str(value).strip()\n    if s == \"\" or s.lower() in (\"nan\", \"nat\", \"none\"):\n        return None\n    datepart = s[:10]\n    if len(datepart) < 10:\n        return None\n    try:\n        return pd.Timestamp(datepart).date()\n    except Exception:\n        return None\n\n\ndef _as_str(value):\n    \"\"\"Return a plain Python string ('' when missing).\"\"\"\n    if value is None:\n        return \"\"\n    if isinstance(value, float) and np.isnan(value):\n        return \"\"\n    s = str(value).strip()\n    if s.lower() in (\"nan\", \"nat\", \"none\"):\n        return \"\"\n    return s\n\n\n# ------------------------------------------------------------- derivation ----\ndef derive(sources):\n    dm = sources[\"DM\"].copy()\n    ex = sources[\"EX\"].copy()\n    ds = sources[\"DS\"].copy()\n\n    # ------------------------------------------------ subject-level skeleton\n    # ASSUMPTION: DM defines the analysis population structure (one record per\n    # subject); DM is already unique by USUBJID in SDTM.\n    dm = dm.drop_duplicates(subset=[\"USUBJID\"]).reset_index(drop=True)\n\n    out = pd.DataFrame()\n    out[\"USUBJID\"] = dm[\"USUBJID\"].map(_as_str)\n    out[\"TRT01P\"] = dm[\"ARM\"].map(_as_str)\n    out[\"TRT01A\"] = dm[\"ACTARM\"].map(_as_str)\n\n    # --------------------------------------------------- treatment start/end\n    # ASSUMPTION: a record represents actual exposure when the dose is greater\n    # than zero, or when the dose is zero for a placebo treatment (placebo\n    # administrations are legitimately recorded with EXDOSE = 0).\n    exd = ex.copy()\n    exd[\"_dose\"] = pd.to_numeric(exd[\"EXDOSE\"], errors=\"coerce\")\n    exd[\"_trt\"] = exd[\"EXTRT\"].map(_as_str).str.upper()\n    exposed = (exd[\"_dose\"] > 0) | (\n        (exd[\"_dose\"] == 0) & (exd[\"_trt\"].str.contains(\"PLACEBO\", na=False))\n    )\n    exd = exd[exposed].copy()\n\n    exd[\"_stdt\"] = exd[\"EXSTDTC\"].map(_iso_to_date)\n    exd[\"_endt\"] = exd[\"EXENDTC\"].map(_iso_to_date)\n\n    # ASSUMPTION: TRTSDT is the earliest non-missing exposure start date and\n    # TRTEDT the latest non-missing exposure end date across all exposure\n    # records for the subject (period 01 is the only treatment period).\n    start_map = (\n        exd.dropna(subset=[\"_stdt\"])\n        .groupby(\"USUBJID\")[\"_stdt\"]\n        .min()\n        .to_dict()\n    )\n    end_map = (\n        exd.dropna(subset=[\"_endt\"])\n        .groupby(\"USUBJID\")[\"_endt\"]\n        .max()\n        .to_dict()\n    )\n\n    out[\"TRTSDT\"] = [start_map.get(u, None) for u in out[\"USUBJID\"]]\n    out[\"TRTEDT\"] = [end_map.get(u, None) for u in out[\"USUBJID\"]]\n\n    # ------------------------------------------------- treatment duration\n    # TRTDURD = TRTEDT - TRTSDT + 1 (inclusive of both endpoints)\n    durd = []\n    for s, e in zip(out[\"TRTSDT\"], out[\"TRTEDT\"]):\n        if s is None or e is None:\n            durd.append(np.nan)\n        else:\n            durd.append(float((e - s).days + 1))\n    out[\"TRTDURD\"] = durd\n\n    # ------------------------------------------------------ safety flag\n    # ASSUMPTION: safety population = subjects with at least one documented\n    # exposure to study treatment (i.e. non-missing TRTSDT); 'N' otherwise.\n    out[\"SAFFL\"] = [\"Y\" if s is not None else \"N\" for s in out[\"TRTSDT\"]]\n\n    # ------------------------------------------------------ pooled age group\n    # ASSUMPTION: pooling as used for this study: 18-64 vs >64 years; ages\n    # below 18 (none expected in this adult study) are grouped as '<18'.\n    age = pd.to_numeric(dm[\"AGE\"], errors=\"coerce\").reset_index(drop=True)\n    agegr1 = []\n    for a in age:\n        if pd.isna(a):\n            agegr1.append(\"\")\n        elif a < 18:\n            agegr1.append(\"<18\")\n        elif a <= 64:\n            agegr1.append(\"18-64\")\n        else:\n            agegr1.append(\">64\")\n    out[\"AGEGR1\"] = agegr1\n\n    # ----------------------------------------------------- pooled race group\n    # ASSUMPTION: race is pooled into 'White' vs 'Non-White'; missing/unknown\n    # race yields a missing pooled group.\n    racegr1 = []\n    for r in dm[\"RACE\"].map(_as_str):\n        ru = r.upper()\n        if ru == \"\":\n            racegr1.append(\"\")\n        elif ru == \"WHITE\":\n            racegr1.append(\"White\")\n        else:\n            racegr1.append(\"Non-White\")\n    out[\"RACEGR1\"] = racegr1\n\n    # ------------------------------------------------------------- EOSSTT\n    # ASSUMPTION: end-of-study status is based on DS records with\n    # DSCAT = 'DISPOSITION EVENT'. If any such record is 'COMPLETED' the\n    # subject completed; any other disposition term (including screen failure\n    # and other early-termination reasons) is 'DISCONTINUED'; subjects with no\n    # disposition event record are still 'ONGOING'.\n    dsd = ds.copy()\n    dsd[\"_cat\"] = dsd[\"DSCAT\"].map(_as_str).str.upper()\n    dsd[\"_dec\"] = dsd[\"DSDECOD\"].map(_as_str).str.upper()\n    dsd = dsd[(dsd[\"_cat\"] == \"DISPOSITION EVENT\") & (dsd[\"_dec\"] != \"\")]\n\n    status_map = {}\n    for usubj, grp in dsd.groupby(\"USUBJID\"):\n        terms = set(grp[\"_dec\"])\n        if \"COMPLETED\" in terms:\n            status_map[_as_str(usubj)] = \"COMPLETED\"\n        else:\n            status_map[_as_str(usubj)] = \"DISCONTINUED\"\n\n    out[\"EOSSTT\"] = [status_map.get(u, \"ONGOING\") for u in out[\"USUBJID\"]]\n\n    # ---------------------------------------------------------- finalisation\n    out = out[\n        [\n            \"USUBJID\",\n            \"TRT01P\",\n            \"TRT01A\",\n            \"TRTSDT\",\n            \"TRTEDT\",\n            \"TRTDURD\",\n            \"SAFFL\",\n            \"AGEGR1\",\n            \"RACEGR1\",\n            \"EOSSTT\",\n        ]\n    ]\n\n    # character variables as plain Python strings, dates as datetime.date\n    for col in [\"USUBJID\", \"TRT01P\", \"TRT01A\", \"SAFFL\", \"AGEGR1\", \"RACEGR1\", \"EOSSTT\"]:\n        out[col] = out[col].map(lambda v: _as_str(v)).astype(object)\n    for col in [\"TRTSDT\", \"TRTEDT\"]:\n        out[col] = out[col].map(lambda v: v if isinstance(v, date) else None).astype(object)\n    out[\"TRTDURD\"] = pd.to_numeric(out[\"TRTDURD\"], errors=\"coerce\")\n\n    out = out.sort_values(\"USUBJID\").reset_index(drop=True)\n    return out",
        "findings": [
          {
            "code": "CT_VIOLATION",
            "layer": "STRUCTURAL",
            "variable": "RACEGR1",
            "message": "values outside controlled terminology: [\"'Non-White'\"]",
            "n_rows": 33,
            "examples": [
              "Non-White"
            ],
            "silent": false,
            "needs_answer_key": false
          },
          {
            "code": "VALUE_COUNTS",
            "layer": "CALIBRATED",
            "variable": "RACEGR1",
            "message": "value distribution differs: expected {'White': 273, 'Non-white': 33}, got {'White': 273, 'Non-White': 33}",
            "n_rows": 0,
            "examples": [],
            "silent": false,
            "needs_answer_key": true
          },
          {
            "code": "VALUE_COUNTS",
            "layer": "CALIBRATED",
            "variable": "EOSSTT",
            "message": "value distribution differs: expected {'DISCONTINUED': 144, 'COMPLETED': 110, '': 52}, got {'DISCONTINUED': 196, 'COMPLETED': 110}",
            "n_rows": 0,
            "examples": [],
            "silent": false,
            "needs_answer_key": true
          },
          {
            "code": "TRUTH_DIFF",
            "layer": "TRUTH",
            "variable": "RACEGR1",
            "message": "33 of 306 values differ from ground truth",
            "n_rows": 33,
            "examples": [
              {
                "key": "01-701-1176",
                "expected": "Non-white",
                "got": "Non-White"
              },
              {
                "key": "01-701-1203",
                "expected": "Non-white",
                "got": "Non-White"
              },
              {
                "key": "01-701-1240",
                "expected": "Non-white",
                "got": "Non-White"
              },
              {
                "key": "01-701-1275",
                "expected": "Non-white",
                "got": "Non-White"
              },
              {
                "key": "01-701-1363",
                "expected": "Non-white",
                "got": "Non-White"
              }
            ],
            "silent": true,
            "needs_answer_key": true
          },
          {
            "code": "TRUTH_DIFF",
            "layer": "TRUTH",
            "variable": "EOSSTT",
            "message": "52 of 306 values differ from ground truth",
            "n_rows": 52,
            "examples": [
              {
                "key": "01-701-1057",
                "expected": "",
                "got": "DISCONTINUED"
              },
              {
                "key": "01-701-1145",
                "expected": "",
                "got": "DISCONTINUED"
              },
              {
                "key": "01-701-1162",
                "expected": "",
                "got": "DISCONTINUED"
              },
              {
                "key": "01-701-1176",
                "expected": "",
                "got": "DISCONTINUED"
              },
              {
                "key": "01-701-1240",
                "expected": "",
                "got": "DISCONTINUED"
              }
            ],
            "silent": true,
            "needs_answer_key": true
          }
        ],
        "usage": {
          "input_tokens": 959,
          "output_tokens": 4749,
          "cache_read": 7037,
          "cache_write": 0
        }
      },
      {
        "n": 2,
        "executed": true,
        "code": "\"\"\"\nADSL - Subject-Level Analysis Dataset\nDerived from SDTM DM, EX and DS.\n\nOne record per subject (key: USUBJID).\n\"\"\"\n\nimport pandas as pd\nimport numpy as np\nfrom datetime import date\n\n\nPROVENANCE = {\n    \"USUBJID\": [\"DM.USUBJID\"],\n    \"TRT01P\": [\"DM.ARM\"],\n    \"TRT01A\": [\"DM.ACTARM\"],\n    \"TRTSDT\": [\"EX.USUBJID\", \"EX.EXSTDTC\", \"EX.EXDOSE\", \"EX.EXTRT\"],\n    \"TRTEDT\": [\"EX.USUBJID\", \"EX.EXENDTC\", \"EX.EXDOSE\", \"EX.EXTRT\"],\n    \"TRTDURD\": [\"ADSL.TRTSDT\", \"ADSL.TRTEDT\"],\n    \"SAFFL\": [\"ADSL.TRTSDT\"],\n    \"AGEGR1\": [\"DM.AGE\"],\n    \"RACEGR1\": [\"DM.RACE\"],\n    \"EOSSTT\": [\"DS.USUBJID\", \"DS.DSCAT\", \"DS.DSDECOD\"],\n}\n\n\n# ---------------------------------------------------------------- helpers ----\ndef _iso_to_date(value):\n    \"\"\"Convert an ISO-8601 SDTM date/time string to a datetime.date.\n\n    Returns None for missing values and for partial dates that do not carry a\n    complete year-month-day component.\n    \"\"\"\n    # ASSUMPTION: no date imputation is performed for partial/missing dates;\n    # the specification does not request imputation flags, so incomplete dates\n    # are treated as missing rather than being imputed.\n    if value is None:\n        return None\n    if isinstance(value, float) and np.isnan(value):\n        return None\n    if isinstance(value, date) and not isinstance(value, pd.Timestamp):\n        return value\n    if isinstance(value, pd.Timestamp):\n        if pd.isna(value):\n            return None\n        return value.date()\n    s = str(value).strip()\n    if s == \"\" or s.lower() in (\"nan\", \"nat\", \"none\"):\n        return None\n    datepart = s[:10]\n    if len(datepart) < 10:\n        return None\n    try:\n        return pd.Timestamp(datepart).date()\n    except Exception:\n        return None\n\n\ndef _as_str(value):\n    \"\"\"Return a plain Python string ('' when missing).\"\"\"\n    if value is None:\n        return \"\"\n    if isinstance(value, float) and np.isnan(value):\n        return \"\"\n    s = str(value).strip()\n    if s.lower() in (\"nan\", \"nat\", \"none\"):\n        return \"\"\n    return s\n\n\n# ------------------------------------------------------------- derivation ----\ndef derive(sources):\n    dm = sources[\"DM\"].copy()\n    ex = sources[\"EX\"].copy()\n    ds = sources[\"DS\"].copy()\n\n    # ------------------------------------------------ subject-level skeleton\n    # ASSUMPTION: DM defines the analysis population structure (one record per\n    # subject); DM is already unique by USUBJID in SDTM.\n    dm = dm.drop_duplicates(subset=[\"USUBJID\"]).reset_index(drop=True)\n\n    out = pd.DataFrame()\n    out[\"USUBJID\"] = dm[\"USUBJID\"].map(_as_str)\n    out[\"TRT01P\"] = dm[\"ARM\"].map(_as_str)\n    out[\"TRT01A\"] = dm[\"ACTARM\"].map(_as_str)\n\n    # --------------------------------------------------- treatment start/end\n    # ASSUMPTION: a record represents actual exposure when the dose is greater\n    # than zero, or when the dose is zero for a placebo treatment (placebo\n    # administrations are legitimately recorded with EXDOSE = 0).\n    exd = ex.copy()\n    exd[\"_dose\"] = pd.to_numeric(exd[\"EXDOSE\"], errors=\"coerce\")\n    exd[\"_trt\"] = exd[\"EXTRT\"].map(_as_str).str.upper()\n    exposed = (exd[\"_dose\"] > 0) | (\n        (exd[\"_dose\"] == 0) & (exd[\"_trt\"].str.contains(\"PLACEBO\", na=False))\n    )\n    exd = exd[exposed].copy()\n\n    exd[\"_stdt\"] = exd[\"EXSTDTC\"].map(_iso_to_date)\n    exd[\"_endt\"] = exd[\"EXENDTC\"].map(_iso_to_date)\n\n    # ASSUMPTION: TRTSDT is the earliest non-missing exposure start date and\n    # TRTEDT the latest non-missing exposure end date across all exposure\n    # records for the subject (period 01 is the only treatment period).\n    start_map = (\n        exd.dropna(subset=[\"_stdt\"])\n        .groupby(\"USUBJID\")[\"_stdt\"]\n        .min()\n        .to_dict()\n    )\n    end_map = (\n        exd.dropna(subset=[\"_endt\"])\n        .groupby(\"USUBJID\")[\"_endt\"]\n        .max()\n        .to_dict()\n    )\n\n    out[\"TRTSDT\"] = [start_map.get(u, None) for u in out[\"USUBJID\"]]\n    out[\"TRTEDT\"] = [end_map.get(u, None) for u in out[\"USUBJID\"]]\n\n    # ------------------------------------------------- treatment duration\n    # TRTDURD = TRTEDT - TRTSDT + 1 (inclusive of both endpoints)\n    durd = []\n    for s, e in zip(out[\"TRTSDT\"], out[\"TRTEDT\"]):\n        if s is None or e is None:\n            durd.append(np.nan)\n        else:\n            durd.append(float((e - s).days + 1))\n    out[\"TRTDURD\"] = durd\n\n    # ------------------------------------------------------ safety flag\n    # ASSUMPTION: safety population = subjects with at least one documented\n    # exposure to study treatment (i.e. non-missing TRTSDT); 'N' otherwise.\n    out[\"SAFFL\"] = [\"Y\" if s is not None else \"N\" for s in out[\"TRTSDT\"]]\n\n    # ------------------------------------------------------ pooled age group\n    # ASSUMPTION: pooling as used for this study: 18-64 vs >64 years; ages\n    # below 18 (none expected in this adult study) are grouped as '<18'.\n    age = pd.to_numeric(dm[\"AGE\"], errors=\"coerce\").reset_index(drop=True)\n    agegr1 = []\n    for a in age:\n        if pd.isna(a):\n            agegr1.append(\"\")\n        elif a < 18:\n            agegr1.append(\"<18\")\n        elif a <= 64:\n            agegr1.append(\"18-64\")\n        else:\n            agegr1.append(\">64\")\n    out[\"AGEGR1\"] = agegr1\n\n    # ----------------------------------------------------- pooled race group\n    # ASSUMPTION: race is pooled into 'White' vs 'Non-white' (controlled\n    # terminology used for this study); missing/unknown race yields a missing\n    # pooled group.\n    racegr1 = []\n    for r in dm[\"RACE\"].map(_as_str):\n        ru = r.upper()\n        if ru == \"\":\n            racegr1.append(\"\")\n        elif ru == \"WHITE\":\n            racegr1.append(\"White\")\n        else:\n            racegr1.append(\"Non-white\")\n    out[\"RACEGR1\"] = racegr1\n\n    # ------------------------------------------------------------- EOSSTT\n    # ASSUMPTION: end-of-study status is based on DS records with\n    # DSCAT = 'DISPOSITION EVENT'. If any such record is 'COMPLETED' the\n    # subject completed; any other disposition term (including screen failure\n    # and other early-termination reasons) is 'DISCONTINUED'; subjects with no\n    # disposition event record are still 'ONGOING'.\n    dsd = ds.copy()\n    dsd[\"_cat\"] = dsd[\"DSCAT\"].map(_as_str).str.upper()\n    dsd[\"_dec\"] = dsd[\"DSDECOD\"].map(_as_str).str.upper()\n    dsd = dsd[(dsd[\"_cat\"] == \"DISPOSITION EVENT\") & (dsd[\"_dec\"] != \"\")]\n\n    status_map = {}\n    for usubj, grp in dsd.groupby(\"USUBJID\"):\n        terms = set(grp[\"_dec\"])\n        if \"COMPLETED\" in terms:\n            status_map[_as_str(usubj)] = \"COMPLETED\"\n        else:\n            status_map[_as_str(usubj)] = \"DISCONTINUED\"\n\n    out[\"EOSSTT\"] = [status_map.get(u, \"ONGOING\") for u in out[\"USUBJID\"]]\n\n    # ---------------------------------------------------------- finalisation\n    out = out[\n        [\n            \"USUBJID\",\n            \"TRT01P\",\n            \"TRT01A\",\n            \"TRTSDT\",\n            \"TRTEDT\",\n            \"TRTDURD\",\n            \"SAFFL\",\n            \"AGEGR1\",\n            \"RACEGR1\",\n            \"EOSSTT\",\n        ]\n    ]\n\n    # character variables as plain Python strings, dates as datetime.date\n    for col in [\"USUBJID\", \"TRT01P\", \"TRT01A\", \"SAFFL\", \"AGEGR1\", \"RACEGR1\", \"EOSSTT\"]:\n        out[col] = out[col].map(lambda v: _as_str(v)).astype(object)\n    for col in [\"TRTSDT\", \"TRTEDT\"]:\n        out[col] = out[col].map(lambda v: v if isinstance(v, date) else None).astype(object)\n    out[\"TRTDURD\"] = pd.to_numeric(out[\"TRTDURD\"], errors=\"coerce\")\n\n    out = out.sort_values(\"USUBJID\").reset_index(drop=True)\n    return out",
        "findings": [
          {
            "code": "VALUE_COUNTS",
            "layer": "CALIBRATED",
            "variable": "EOSSTT",
            "message": "value distribution differs: expected {'DISCONTINUED': 144, 'COMPLETED': 110, '': 52}, got {'DISCONTINUED': 196, 'COMPLETED': 110}",
            "n_rows": 0,
            "examples": [],
            "silent": false,
            "needs_answer_key": true
          },
          {
            "code": "TRUTH_DIFF",
            "layer": "TRUTH",
            "variable": "EOSSTT",
            "message": "52 of 306 values differ from ground truth",
            "n_rows": 52,
            "examples": [
              {
                "key": "01-701-1057",
                "expected": "",
                "got": "DISCONTINUED"
              },
              {
                "key": "01-701-1145",
                "expected": "",
                "got": "DISCONTINUED"
              },
              {
                "key": "01-701-1162",
                "expected": "",
                "got": "DISCONTINUED"
              },
              {
                "key": "01-701-1176",
                "expected": "",
                "got": "DISCONTINUED"
              },
              {
                "key": "01-701-1240",
                "expected": "",
                "got": "DISCONTINUED"
              }
            ],
            "silent": true,
            "needs_answer_key": true
          }
        ],
        "usage": {
          "input_tokens": 4369,
          "output_tokens": 3317,
          "cache_read": 7037,
          "cache_write": 0
        }
      }
    ]
  },
  {
    "dataset": "ADSL",
    "level": "L2",
    "repeat": 0,
    "model": "claude-opus-5",
    "score": 0.7,
    "n_attempts": 4,
    "target_variables": [
      "USUBJID",
      "TRT01P",
      "TRT01A",
      "TRTSDT",
      "TRTEDT",
      "TRTDURD",
      "SAFFL",
      "AGEGR1",
      "RACEGR1",
      "EOSSTT"
    ],
    "clean_variables": [
      "USUBJID",
      "TRT01P",
      "TRT01A",
      "TRTSDT",
      "SAFFL",
      "AGEGR1",
      "RACEGR1"
    ],
    "provenance": {
      "USUBJID": [
        "DM.USUBJID"
      ],
      "TRT01P": [
        "DM.ARM"
      ],
      "TRT01A": [
        "DM.ACTARM"
      ],
      "TRTSDT": [
        "EX.EXSTDTC",
        "EX.EXDOSE",
        "EX.EXTRT"
      ],
      "TRTEDT": [
        "EX.EXENDTC",
        "EX.EXSTDTC",
        "EX.EXDOSE",
        "EX.EXTRT"
      ],
      "TRTDURD": [
        "ADSL.TRTSDT",
        "ADSL.TRTEDT"
      ],
      "SAFFL": [
        "ADSL.TRTSDT"
      ],
      "AGEGR1": [
        "DM.AGE"
      ],
      "RACEGR1": [
        "DM.RACE"
      ],
      "EOSSTT": [
        "DS.DSCAT",
        "DS.DSDECOD"
      ]
    },
    "cost_usd": 0.5437,
    "attempts": [
      {
        "n": 1,
        "executed": true,
        "code": "import datetime as _dt\n\nimport numpy as np\nimport pandas as pd\n\n# ------------------------------------------------------------------ provenance\nPROVENANCE = {\n    \"USUBJID\": [\"DM.USUBJID\"],\n    \"TRT01P\": [\"DM.ARM\"],\n    \"TRT01A\": [\"DM.ACTARM\"],\n    \"TRTSDT\": [\"EX.EXSTDTC\", \"EX.EXDOSE\", \"EX.EXTRT\"],\n    \"TRTEDT\": [\"EX.EXENDTC\", \"EX.EXSTDTC\", \"EX.EXDOSE\", \"EX.EXTRT\"],\n    \"TRTDURD\": [\"ADSL.TRTSDT\", \"ADSL.TRTEDT\"],\n    \"SAFFL\": [\"ADSL.TRTSDT\"],\n    \"AGEGR1\": [\"DM.AGE\"],\n    \"RACEGR1\": [\"DM.RACE\"],\n    \"EOSSTT\": [\"DS.DSCAT\", \"DS.DSDECOD\"],\n}\n\n\n# ------------------------------------------------------------------ helpers\ndef _to_date(value):\n    \"\"\"Convert an ISO 8601 SDTM date/datetime string to a datetime.date.\n\n    Returns None when the value is missing or when the date part is not a\n    complete (YYYY-MM-DD) date.\n    ASSUMPTION: partial dates (e.g. '2013-07') are treated as missing; no\n    imputation is performed because the specification does not request an\n    imputation flag.\n    \"\"\"\n    if value is None:\n        return None\n    if isinstance(value, float) and np.isnan(value):\n        return None\n    if isinstance(value, _dt.datetime):\n        return value.date()\n    if isinstance(value, _dt.date):\n        return value\n    s = str(value).strip()\n    if s == \"\" or s.lower() in (\"nan\", \"nat\", \"none\"):\n        return None\n    s = s[:10]\n    if len(s) < 10:\n        return None\n    try:\n        return _dt.date(int(s[0:4]), int(s[5:7]), int(s[8:10]))\n    except (ValueError, TypeError):\n        return None\n\n\ndef _to_str(value):\n    \"\"\"Character variables are Python strings; missing becomes empty string.\"\"\"\n    if value is None:\n        return \"\"\n    if isinstance(value, float) and np.isnan(value):\n        return \"\"\n    s = str(value).strip()\n    if s.lower() in (\"nan\", \"none\", \"nat\"):\n        return \"\"\n    return s\n\n\ndef derive(sources):\n    dm = sources[\"DM\"].copy()\n    ex = sources[\"EX\"].copy()\n    ds = sources[\"DS\"].copy()\n\n    out = pd.DataFrame()\n    out[\"USUBJID\"] = dm[\"USUBJID\"].map(_to_str)\n\n    # ---------------------------------------------------------- treatment vars\n    # ASSUMPTION: this is a single-period study, so planned/actual treatment for\n    # period 01 are the planned/actual arm from DM.\n    out[\"TRT01P\"] = dm[\"ARM\"].map(_to_str)\n    out[\"TRT01A\"] = dm[\"ACTARM\"].map(_to_str)\n\n    # ---------------------------------------------------------- TRTSDT / TRTEDT\n    # ASSUMPTION: an exposure record counts as actual treatment when the dose is\n    # non-missing and either positive or zero for a placebo treatment (placebo is\n    # administered at a dose of 0), and it has a usable start date.\n    exw = ex.copy()\n    exw[\"_STDT\"] = exw[\"EXSTDTC\"].map(_to_date)\n    exw[\"_ENDT\"] = exw[\"EXENDTC\"].map(_to_date)\n    exw[\"_TRT\"] = exw[\"EXTRT\"].map(_to_str).str.upper()\n    dose = pd.to_numeric(exw[\"EXDOSE\"], errors=\"coerce\")\n    valid = dose.notna() & ((dose > 0) | ((dose == 0) & exw[\"_TRT\"].str.contains(\"PLACEBO\")))\n    exw = exw[valid & exw[\"_STDT\"].notna()]\n\n    # ASSUMPTION: when an exposure end date is missing, the start date of that\n    # record is used so the record still contributes to the last exposure date.\n    exw[\"_ENDT\"] = exw[\"_ENDT\"].where(exw[\"_ENDT\"].notna(), exw[\"_STDT\"])\n\n    if len(exw):\n        first = exw.groupby(\"USUBJID\")[\"_STDT\"].min()\n        last = exw.groupby(\"USUBJID\")[\"_ENDT\"].max()\n    else:\n        first = pd.Series(dtype=object)\n        last = pd.Series(dtype=object)\n\n    out[\"TRTSDT\"] = out[\"USUBJID\"].map(first)\n    out[\"TRTEDT\"] = out[\"USUBJID\"].map(last)\n    out[\"TRTSDT\"] = out[\"TRTSDT\"].where(out[\"TRTSDT\"].notna(), None).astype(object)\n    out[\"TRTEDT\"] = out[\"TRTEDT\"].where(out[\"TRTEDT\"].notna(), None).astype(object)\n\n    # ---------------------------------------------------------------- TRTDURD\n    def _dur(row):\n        s, e = row[\"TRTSDT\"], row[\"TRTEDT\"]\n        if isinstance(s, _dt.date) and isinstance(e, _dt.date):\n            return float((e - s).days + 1)\n        return np.nan\n\n    out[\"TRTDURD\"] = out.apply(_dur, axis=1).astype(float)\n\n    # ------------------------------------------------------------------ SAFFL\n    # ASSUMPTION: safety population = subjects with at least one documented\n    # exposure to study treatment (i.e. a non-missing TRTSDT).\n    out[\"SAFFL\"] = np.where(out[\"TRTSDT\"].map(lambda x: isinstance(x, _dt.date)), \"Y\", \"N\")\n    out[\"SAFFL\"] = out[\"SAFFL\"].astype(str)\n\n    # ----------------------------------------------------------------- AGEGR1\n    # ASSUMPTION: pooled age groups are the study's two categories: 18-64 and >64.\n    age = pd.to_numeric(dm[\"AGE\"], errors=\"coerce\").values\n\n    def _agegr(a):\n        if a is None or (isinstance(a, float) and np.isnan(a)):\n            return \"\"\n        if a < 18:\n            return \"<18\"\n        if a <= 64:\n            return \"18-64\"\n        return \">64\"\n\n    out[\"AGEGR1\"] = [_agegr(a) for a in age]\n\n    # ---------------------------------------------------------------- RACEGR1\n    # ASSUMPTION: pooled race group 1 collapses all non-white races into\n    # 'Non-White'; missing race stays missing.\n    def _racegr(r):\n        r = _to_str(r)\n        if r == \"\":\n            return \"\"\n        return \"White\" if r.upper() == \"WHITE\" else \"Non-White\"\n\n    out[\"RACEGR1\"] = dm[\"RACE\"].map(_racegr)\n\n    # ----------------------------------------------------------------- EOSSTT\n    # End of study status from the DS disposition event record.\n    # ASSUMPTION: the latest DISPOSITION EVENT record per subject determines the\n    # status; DSDECOD 'COMPLETED' -> COMPLETED, any other disposition event\n    # (including screen failure / withdrawal / death) -> DISCONTINUED; subjects\n    # with no disposition event record have a missing status.\n    dsw = ds[ds[\"DSCAT\"].map(_to_str).str.upper() == \"DISPOSITION EVENT\"].copy()\n    dsw[\"_SEQ\"] = pd.to_numeric(dsw[\"DSSEQ\"], errors=\"coerce\")\n    dsw = dsw.sort_values([\"USUBJID\", \"_SEQ\"])\n    last_ds = dsw.groupby(\"USUBJID\")[\"DSDECOD\"].last()\n\n    def _eosstt(u):\n        if u in last_ds.index:\n            dec = _to_str(last_ds.loc[u]).upper()\n            if dec == \"\":\n                return \"\"\n            return \"COMPLETED\" if dec == \"COMPLETED\" else \"DISCONTINUED\"\n        return \"\"\n\n    out[\"EOSSTT\"] = out[\"USUBJID\"].map(_eosstt)\n\n    # --------------------------------------------------------- final structure\n    out = out[\n        [\n            \"USUBJID\",\n            \"TRT01P\",\n            \"TRT01A\",\n            \"TRTSDT\",\n            \"TRTEDT\",\n            \"TRTDURD\",\n            \"SAFFL\",\n            \"AGEGR1\",\n            \"RACEGR1\",\n            \"EOSSTT\",\n        ]\n    ]\n    # One record per subject.\n    out = out.drop_duplicates(subset=[\"USUBJID\"]).sort_values(\"USUBJID\").reset_index(drop=True)\n    return out",
        "findings": [
          {
            "code": "MISSING_COUNT",
            "layer": "CALIBRATED",
            "variable": "TRTEDT",
            "message": "expected 54 missing values, got 52",
            "n_rows": 2,
            "examples": [],
            "silent": false,
            "needs_answer_key": true
          },
          {
            "code": "CT_VIOLATION",
            "layer": "STRUCTURAL",
            "variable": "RACEGR1",
            "message": "values outside controlled terminology: [\"'Non-White'\"]",
            "n_rows": 33,
            "examples": [
              "Non-White"
            ],
            "silent": false,
            "needs_answer_key": false
          },
          {
            "code": "VALUE_COUNTS",
            "layer": "CALIBRATED",
            "variable": "RACEGR1",
            "message": "value distribution differs: expected {'White': 273, 'Non-white': 33}, got {'White': 273, 'Non-White': 33}",
            "n_rows": 0,
            "examples": [],
            "silent": false,
            "needs_answer_key": true
          },
          {
            "code": "VALUE_COUNTS",
            "layer": "CALIBRATED",
            "variable": "EOSSTT",
            "message": "value distribution differs: expected {'DISCONTINUED': 144, 'COMPLETED': 110, '': 52}, got {'DISCONTINUED': 196, 'COMPLETED': 110}",
            "n_rows": 0,
            "examples": [],
            "silent": false,
            "needs_answer_key": true
          },
          {
            "code": "TRUTH_DIFF",
            "layer": "TRUTH",
            "variable": "TRTEDT",
            "message": "6 of 306 values differ from ground truth",
            "n_rows": 6,
            "examples": [
              {
                "key": "01-704-1233",
                "expected": "2013-04-04",
                "got": "2013-04-05"
              },
              {
                "key": "01-705-1018",
                "expected": "nan",
                "got": "2013-07-05"
              },
              {
                "key": "01-705-1031",
                "expected": "2013-12-18",
                "got": "2013-12-19"
              },
              {
                "key": "01-705-1303",
                "expected": "2013-12-30",
                "got": "2013-12-31"
              },
              {
                "key": "01-705-1377",
                "expected": "2014-01-25",
                "got": "2014-01-26"
              }
            ],
            "silent": true,
            "needs_answer_key": true
          },
          {
            "code": "TRUTH_DIFF",
            "layer": "TRUTH",
            "variable": "TRTDURD",
            "message": "6 of 306 values differ from ground truth",
            "n_rows": 6,
            "examples": [
              {
                "key": "01-704-1233",
                "expected": "15.0",
                "got": "16.0"
              },
              {
                "key": "01-705-1018",
                "expected": "nan",
                "got": "1.0"
              },
              {
                "key": "01-705-1031",
                "expected": "22.0",
                "got": "23.0"
              },
              {
                "key": "01-705-1303",
                "expected": "15.0",
                "got": "16.0"
              },
              {
                "key": "01-705-1377",
                "expected": "22.0",
                "got": "23.0"
              }
            ],
            "silent": true,
            "needs_answer_key": true
          },
          {
            "code": "TRUTH_DIFF",
            "layer": "TRUTH",
            "variable": "RACEGR1",
            "message": "33 of 306 values differ from ground truth",
            "n_rows": 33,
            "examples": [
              {
                "key": "01-701-1176",
                "expected": "Non-white",
                "got": "Non-White"
              },
              {
                "key": "01-701-1203",
                "expected": "Non-white",
                "got": "Non-White"
              },
              {
                "key": "01-701-1240",
                "expected": "Non-white",
                "got": "Non-White"
              },
              {
                "key": "01-701-1275",
                "expected": "Non-white",
                "got": "Non-White"
              },
              {
                "key": "01-701-1363",
                "expected": "Non-white",
                "got": "Non-White"
              }
            ],
            "silent": true,
            "needs_answer_key": true
          },
          {
            "code": "TRUTH_DIFF",
            "layer": "TRUTH",
            "variable": "EOSSTT",
            "message": "52 of 306 values differ from ground truth",
            "n_rows": 52,
            "examples": [
              {
                "key": "01-701-1057",
                "expected": "",
                "got": "DISCONTINUED"
              },
              {
                "key": "01-701-1145",
                "expected": "",
                "got": "DISCONTINUED"
              },
              {
                "key": "01-701-1162",
                "expected": "",
                "got": "DISCONTINUED"
              },
              {
                "key": "01-701-1176",
                "expected": "",
                "got": "DISCONTINUED"
              },
              {
                "key": "01-701-1240",
                "expected": "",
                "got": "DISCONTINUED"
              }
            ],
            "silent": true,
            "needs_answer_key": true
          }
        ],
        "usage": {
          "input_tokens": 555,
          "output_tokens": 6192,
          "cache_read": 7037,
          "cache_write": 0
        }
      },
      {
        "n": 2,
        "executed": true,
        "code": "import datetime as _dt\n\nimport numpy as np\nimport pandas as pd\n\n# ------------------------------------------------------------------ provenance\nPROVENANCE = {\n    \"USUBJID\": [\"DM.USUBJID\"],\n    \"TRT01P\": [\"DM.ARM\"],\n    \"TRT01A\": [\"DM.ACTARM\"],\n    \"TRTSDT\": [\"EX.EXSTDTC\", \"EX.EXDOSE\", \"EX.EXTRT\"],\n    \"TRTEDT\": [\"EX.EXENDTC\", \"EX.EXSTDTC\", \"EX.EXDOSE\", \"EX.EXTRT\"],\n    \"TRTDURD\": [\"ADSL.TRTSDT\", \"ADSL.TRTEDT\"],\n    \"SAFFL\": [\"ADSL.TRTSDT\"],\n    \"AGEGR1\": [\"DM.AGE\"],\n    \"RACEGR1\": [\"DM.RACE\"],\n    \"EOSSTT\": [\"DS.DSCAT\", \"DS.DSDECOD\"],\n}\n\n\n# ------------------------------------------------------------------ helpers\ndef _to_date(value):\n    \"\"\"Convert an ISO 8601 SDTM date/datetime string to a datetime.date.\n\n    Returns None when the value is missing or when the date part is not a\n    complete (YYYY-MM-DD) date.\n    ASSUMPTION: partial dates (e.g. '2013-07') are treated as missing; no\n    imputation is performed because the specification does not request an\n    imputation flag.\n    \"\"\"\n    if value is None:\n        return None\n    if isinstance(value, float) and np.isnan(value):\n        return None\n    if isinstance(value, _dt.datetime):\n        return value.date()\n    if isinstance(value, _dt.date):\n        return value\n    s = str(value).strip()\n    if s == \"\" or s.lower() in (\"nan\", \"nat\", \"none\"):\n        return None\n    s = s[:10]\n    if len(s) < 10:\n        return None\n    try:\n        return _dt.date(int(s[0:4]), int(s[5:7]), int(s[8:10]))\n    except (ValueError, TypeError):\n        return None\n\n\ndef _to_str(value):\n    \"\"\"Character variables are Python strings; missing becomes empty string.\"\"\"\n    if value is None:\n        return \"\"\n    if isinstance(value, float) and np.isnan(value):\n        return \"\"\n    s = str(value).strip()\n    if s.lower() in (\"nan\", \"none\", \"nat\"):\n        return \"\"\n    return s\n\n\ndef derive(sources):\n    dm = sources[\"DM\"].copy()\n    ex = sources[\"EX\"].copy()\n    ds = sources[\"DS\"].copy()\n\n    out = pd.DataFrame()\n    out[\"USUBJID\"] = dm[\"USUBJID\"].map(_to_str)\n\n    # ---------------------------------------------------------- treatment vars\n    # ASSUMPTION: this is a single-period study, so planned/actual treatment for\n    # period 01 are the planned/actual arm from DM.\n    out[\"TRT01P\"] = dm[\"ARM\"].map(_to_str)\n    out[\"TRT01A\"] = dm[\"ACTARM\"].map(_to_str)\n\n    # ---------------------------------------------------------- TRTSDT / TRTEDT\n    # ASSUMPTION: an exposure record counts as actual treatment when the dose is\n    # non-missing and either positive or zero for a placebo treatment (placebo is\n    # administered at a dose of 0), and it has a usable start date.\n    exw = ex.copy()\n    exw[\"_STDT\"] = exw[\"EXSTDTC\"].map(_to_date)\n    exw[\"_ENDT\"] = exw[\"EXENDTC\"].map(_to_date)\n    exw[\"_TRT\"] = exw[\"EXTRT\"].map(_to_str).str.upper()\n    dose = pd.to_numeric(exw[\"EXDOSE\"], errors=\"coerce\")\n    valid = dose.notna() & ((dose > 0) | ((dose == 0) & exw[\"_TRT\"].str.contains(\"PLACEBO\")))\n    exw = exw[valid & exw[\"_STDT\"].notna()]\n\n    # ASSUMPTION: when an exposure end date is missing, the start date of that\n    # record is used so the record still contributes to the last exposure date.\n    exw[\"_ENDT\"] = exw[\"_ENDT\"].where(exw[\"_ENDT\"].notna(), exw[\"_STDT\"])\n\n    if len(exw):\n        first = exw.groupby(\"USUBJID\")[\"_STDT\"].min()\n        last = exw.groupby(\"USUBJID\")[\"_ENDT\"].max()\n    else:\n        first = pd.Series(dtype=object)\n        last = pd.Series(dtype=object)\n\n    out[\"TRTSDT\"] = out[\"USUBJID\"].map(first)\n    out[\"TRTEDT\"] = out[\"USUBJID\"].map(last)\n    out[\"TRTSDT\"] = out[\"TRTSDT\"].where(out[\"TRTSDT\"].notna(), None).astype(object)\n    out[\"TRTEDT\"] = out[\"TRTEDT\"].where(out[\"TRTEDT\"].notna(), None).astype(object)\n\n    # ---------------------------------------------------------------- TRTDURD\n    def _dur(row):\n        s, e = row[\"TRTSDT\"], row[\"TRTEDT\"]\n        if isinstance(s, _dt.date) and isinstance(e, _dt.date):\n            return float((e - s).days + 1)\n        return np.nan\n\n    out[\"TRTDURD\"] = out.apply(_dur, axis=1).astype(float)\n\n    # ------------------------------------------------------------------ SAFFL\n    # ASSUMPTION: safety population = subjects with at least one documented\n    # exposure to study treatment (i.e. a non-missing TRTSDT).\n    out[\"SAFFL\"] = np.where(out[\"TRTSDT\"].map(lambda x: isinstance(x, _dt.date)), \"Y\", \"N\")\n    out[\"SAFFL\"] = out[\"SAFFL\"].astype(str)\n\n    # ----------------------------------------------------------------- AGEGR1\n    # ASSUMPTION: pooled age groups are the study's two categories: 18-64 and >64.\n    age = pd.to_numeric(dm[\"AGE\"], errors=\"coerce\").values\n\n    def _agegr(a):\n        if a is None or (isinstance(a, float) and np.isnan(a)):\n            return \"\"\n        if a < 18:\n            return \"<18\"\n        if a <= 64:\n            return \"18-64\"\n        return \">64\"\n\n    out[\"AGEGR1\"] = [_agegr(a) for a in age]\n\n    # ---------------------------------------------------------------- RACEGR1\n    # ASSUMPTION: pooled race group 1 collapses all non-white races into the\n    # 'Other' category (controlled terminology: White / Other); missing race\n    # stays missing.\n    def _racegr(r):\n        r = _to_str(r)\n        if r == \"\":\n            return \"\"\n        return \"White\" if r.upper() == \"WHITE\" else \"Other\"\n\n    out[\"RACEGR1\"] = dm[\"RACE\"].map(_racegr)\n\n    # ----------------------------------------------------------------- EOSSTT\n    # End of study status from the DS disposition event record.\n    # ASSUMPTION: the latest DISPOSITION EVENT record per subject determines the\n    # status; DSDECOD 'COMPLETED' -> COMPLETED, any other disposition event\n    # (including screen failure / withdrawal / death) -> DISCONTINUED; subjects\n    # with no disposition event record have a missing status.\n    dsw = ds[ds[\"DSCAT\"].map(_to_str).str.upper() == \"DISPOSITION EVENT\"].copy()\n    dsw[\"_SEQ\"] = pd.to_numeric(dsw[\"DSSEQ\"], errors=\"coerce\")\n    dsw = dsw.sort_values([\"USUBJID\", \"_SEQ\"])\n    last_ds = dsw.groupby(\"USUBJID\")[\"DSDECOD\"].last()\n\n    def _eosstt(u):\n        if u in last_ds.index:\n            dec = _to_str(last_ds.loc[u]).upper()\n            if dec == \"\":\n                return \"\"\n            return \"COMPLETED\" if dec == \"COMPLETED\" else \"DISCONTINUED\"\n        return \"\"\n\n    out[\"EOSSTT\"] = out[\"USUBJID\"].map(_eosstt)\n\n    # --------------------------------------------------------- final structure\n    out = out[\n        [\n            \"USUBJID\",\n            \"TRT01P\",\n            \"TRT01A\",\n            \"TRTSDT\",\n            \"TRTEDT\",\n            \"TRTDURD\",\n            \"SAFFL\",\n            \"AGEGR1\",\n            \"RACEGR1\",\n            \"EOSSTT\",\n        ]\n    ]\n    # One record per subject.\n    out = out.drop_duplicates(subset=[\"USUBJID\"]).sort_values(\"USUBJID\").reset_index(drop=True)\n    return out",
        "findings": [
          {
            "code": "MISSING_COUNT",
            "layer": "CALIBRATED",
            "variable": "TRTEDT",
            "message": "expected 54 missing values, got 52",
            "n_rows": 2,
            "examples": [],
            "silent": false,
            "needs_answer_key": true
          },
          {
            "code": "CT_VIOLATION",
            "layer": "STRUCTURAL",
            "variable": "RACEGR1",
            "message": "values outside controlled terminology: [\"'Other'\"]",
            "n_rows": 33,
            "examples": [
              "Other"
            ],
            "silent": false,
            "needs_answer_key": false
          },
          {
            "code": "VALUE_COUNTS",
            "layer": "CALIBRATED",
            "variable": "RACEGR1",
            "message": "value distribution differs: expected {'White': 273, 'Non-white': 33}, got {'White': 273, 'Other': 33}",
            "n_rows": 0,
            "examples": [],
            "silent": false,
            "needs_answer_key": true
          },
          {
            "code": "VALUE_COUNTS",
            "layer": "CALIBRATED",
            "variable": "EOSSTT",
            "message": "value distribution differs: expected {'DISCONTINUED': 144, 'COMPLETED': 110, '': 52}, got {'DISCONTINUED': 196, 'COMPLETED': 110}",
            "n_rows": 0,
            "examples": [],
            "silent": false,
            "needs_answer_key": true
          },
          {
            "code": "TRUTH_DIFF",
            "layer": "TRUTH",
            "variable": "TRTEDT",
            "message": "6 of 306 values differ from ground truth",
            "n_rows": 6,
            "examples": [
              {
                "key": "01-704-1233",
                "expected": "2013-04-04",
                "got": "2013-04-05"
              },
              {
                "key": "01-705-1018",
                "expected": "nan",
                "got": "2013-07-05"
              },
              {
                "key": "01-705-1031",
                "expected": "2013-12-18",
                "got": "2013-12-19"
              },
              {
                "key": "01-705-1303",
                "expected": "2013-12-30",
                "got": "2013-12-31"
              },
              {
                "key": "01-705-1377",
                "expected": "2014-01-25",
                "got": "2014-01-26"
              }
            ],
            "silent": true,
            "needs_answer_key": true
          },
          {
            "code": "TRUTH_DIFF",
            "layer": "TRUTH",
            "variable": "TRTDURD",
            "message": "6 of 306 values differ from ground truth",
            "n_rows": 6,
            "examples": [
              {
                "key": "01-704-1233",
                "expected": "15.0",
                "got": "16.0"
              },
              {
                "key": "01-705-1018",
                "expected": "nan",
                "got": "1.0"
              },
              {
                "key": "01-705-1031",
                "expected": "22.0",
                "got": "23.0"
              },
              {
                "key": "01-705-1303",
                "expected": "15.0",
                "got": "16.0"
              },
              {
                "key": "01-705-1377",
                "expected": "22.0",
                "got": "23.0"
              }
            ],
            "silent": true,
            "needs_answer_key": true
          },
          {
            "code": "TRUTH_DIFF",
            "layer": "TRUTH",
            "variable": "RACEGR1",
            "message": "33 of 306 values differ from ground truth",
            "n_rows": 33,
            "examples": [
              {
                "key": "01-701-1176",
                "expected": "Non-white",
                "got": "Other"
              },
              {
                "key": "01-701-1203",
                "expected": "Non-white",
                "got": "Other"
              },
              {
                "key": "01-701-1240",
                "expected": "Non-white",
                "got": "Other"
              },
              {
                "key": "01-701-1275",
                "expected": "Non-white",
                "got": "Other"
              },
              {
                "key": "01-701-1363",
                "expected": "Non-white",
                "got": "Other"
              }
            ],
            "silent": true,
            "needs_answer_key": true
          },
          {
            "code": "TRUTH_DIFF",
            "layer": "TRUTH",
            "variable": "EOSSTT",
            "message": "52 of 306 values differ from ground truth",
            "n_rows": 52,
            "examples": [
              {
                "key": "01-701-1057",
                "expected": "",
                "got": "DISCONTINUED"
              },
              {
                "key": "01-701-1145",
                "expected": "",
                "got": "DISCONTINUED"
              },
              {
                "key": "01-701-1162",
                "expected": "",
                "got": "DISCONTINUED"
              },
              {
                "key": "01-701-1176",
                "expected": "",
                "got": "DISCONTINUED"
              },
              {
                "key": "01-701-1240",
                "expected": "",
                "got": "DISCONTINUED"
              }
            ],
            "silent": true,
            "needs_answer_key": true
          }
        ],
        "usage": {
          "input_tokens": 3646,
          "output_tokens": 2997,
          "cache_read": 7037,
          "cache_write": 0
        }
      },
      {
        "n": 3,
        "executed": true,
        "code": "import datetime as _dt\n\nimport numpy as np\nimport pandas as pd\n\n# ------------------------------------------------------------------ provenance\nPROVENANCE = {\n    \"USUBJID\": [\"DM.USUBJID\"],\n    \"TRT01P\": [\"DM.ARM\"],\n    \"TRT01A\": [\"DM.ACTARM\"],\n    \"TRTSDT\": [\"EX.EXSTDTC\", \"EX.EXDOSE\", \"EX.EXTRT\"],\n    \"TRTEDT\": [\"EX.EXENDTC\", \"EX.EXSTDTC\", \"EX.EXDOSE\", \"EX.EXTRT\"],\n    \"TRTDURD\": [\"ADSL.TRTSDT\", \"ADSL.TRTEDT\"],\n    \"SAFFL\": [\"ADSL.TRTSDT\"],\n    \"AGEGR1\": [\"DM.AGE\"],\n    \"RACEGR1\": [\"DM.RACE\"],\n    \"EOSSTT\": [\"DS.DSCAT\", \"DS.DSDECOD\"],\n}\n\n\n# ------------------------------------------------------------------ helpers\ndef _to_date(value):\n    \"\"\"Convert an ISO 8601 SDTM date/datetime string to a datetime.date.\n\n    Returns None when the value is missing or when the date part is not a\n    complete (YYYY-MM-DD) date.\n    ASSUMPTION: partial dates (e.g. '2013-07') are treated as missing; no\n    imputation is performed because the specification does not request an\n    imputation flag.\n    \"\"\"\n    if value is None:\n        return None\n    if isinstance(value, float) and np.isnan(value):\n        return None\n    if isinstance(value, _dt.datetime):\n        return value.date()\n    if isinstance(value, _dt.date):\n        return value\n    s = str(value).strip()\n    if s == \"\" or s.lower() in (\"nan\", \"nat\", \"none\"):\n        return None\n    s = s[:10]\n    if len(s) < 10:\n        return None\n    try:\n        return _dt.date(int(s[0:4]), int(s[5:7]), int(s[8:10]))\n    except (ValueError, TypeError):\n        return None\n\n\ndef _to_str(value):\n    \"\"\"Character variables are Python strings; missing becomes empty string.\"\"\"\n    if value is None:\n        return \"\"\n    if isinstance(value, float) and np.isnan(value):\n        return \"\"\n    s = str(value).strip()\n    if s.lower() in (\"nan\", \"none\", \"nat\"):\n        return \"\"\n    return s\n\n\n# ASSUMPTION: pooled race group 1 keeps the collected race categories, rendered\n# in mixed case (the analysis-ready presentation form of the SDTM RACE codelist).\n# No artificial pooled category (e.g. 'Other'/'Non-White') is invented because\n# the specification does not define one.\n_RACEGR1_MAP = {\n    \"WHITE\": \"White\",\n    \"BLACK OR AFRICAN AMERICAN\": \"Black or African American\",\n    \"BLACK\": \"Black or African American\",\n    \"ASIAN\": \"Asian\",\n    \"AMERICAN INDIAN OR ALASKA NATIVE\": \"American Indian or Alaska Native\",\n    \"NATIVE HAWAIIAN OR OTHER PACIFIC ISLANDER\": \"Native Hawaiian or Other Pacific Islander\",\n    \"MULTIPLE\": \"Multiple\",\n    \"UNKNOWN\": \"Unknown\",\n    \"NOT REPORTED\": \"Not Reported\",\n    \"OTHER\": \"Other\",\n}\n\n\ndef _mixed_case(text):\n    small = {\"or\", \"of\", \"and\", \"the\"}\n    words = text.lower().split()\n    return \" \".join(w if w in small else w.capitalize() for w in words)\n\n\ndef derive(sources):\n    dm = sources[\"DM\"].copy()\n    ex = sources[\"EX\"].copy()\n    ds = sources[\"DS\"].copy()\n\n    out = pd.DataFrame()\n    out[\"USUBJID\"] = dm[\"USUBJID\"].map(_to_str)\n\n    # ---------------------------------------------------------- treatment vars\n    # ASSUMPTION: this is a single-period study, so planned/actual treatment for\n    # period 01 are the planned/actual arm from DM.\n    out[\"TRT01P\"] = dm[\"ARM\"].map(_to_str)\n    out[\"TRT01A\"] = dm[\"ACTARM\"].map(_to_str)\n\n    # ---------------------------------------------------------- TRTSDT / TRTEDT\n    # ASSUMPTION: an exposure record counts as actual treatment when the dose is\n    # non-missing and either positive or zero for a placebo treatment (placebo is\n    # administered at a dose of 0), and it has a usable start date.\n    exw = ex.copy()\n    exw[\"_STDT\"] = exw[\"EXSTDTC\"].map(_to_date)\n    exw[\"_ENDT\"] = exw[\"EXENDTC\"].map(_to_date)\n    exw[\"_TRT\"] = exw[\"EXTRT\"].map(_to_str).str.upper()\n    dose = pd.to_numeric(exw[\"EXDOSE\"], errors=\"coerce\")\n    valid = dose.notna() & ((dose > 0) | ((dose == 0) & exw[\"_TRT\"].str.contains(\"PLACEBO\")))\n    exw = exw[valid & exw[\"_STDT\"].notna()]\n\n    # ASSUMPTION: when an exposure end date is missing, the start date of that\n    # record is used so the record still contributes to the last exposure date.\n    exw[\"_ENDT\"] = exw[\"_ENDT\"].where(exw[\"_ENDT\"].notna(), exw[\"_STDT\"])\n\n    if len(exw):\n        first = exw.groupby(\"USUBJID\")[\"_STDT\"].min()\n        last = exw.groupby(\"USUBJID\")[\"_ENDT\"].max()\n    else:\n        first = pd.Series(dtype=object)\n        last = pd.Series(dtype=object)\n\n    out[\"TRTSDT\"] = out[\"USUBJID\"].map(first)\n    out[\"TRTEDT\"] = out[\"USUBJID\"].map(last)\n    out[\"TRTSDT\"] = out[\"TRTSDT\"].where(out[\"TRTSDT\"].notna(), None).astype(object)\n    out[\"TRTEDT\"] = out[\"TRTEDT\"].where(out[\"TRTEDT\"].notna(), None).astype(object)\n\n    # ---------------------------------------------------------------- TRTDURD\n    def _dur(row):\n        s, e = row[\"TRTSDT\"], row[\"TRTEDT\"]\n        if isinstance(s, _dt.date) and isinstance(e, _dt.date):\n            return float((e - s).days + 1)\n        return np.nan\n\n    out[\"TRTDURD\"] = out.apply(_dur, axis=1).astype(float)\n\n    # ------------------------------------------------------------------ SAFFL\n    # ASSUMPTION: safety population = subjects with at least one documented\n    # exposure to study treatment (i.e. a non-missing TRTSDT).\n    out[\"SAFFL\"] = np.where(out[\"TRTSDT\"].map(lambda x: isinstance(x, _dt.date)), \"Y\", \"N\")\n    out[\"SAFFL\"] = out[\"SAFFL\"].astype(str)\n\n    # ----------------------------------------------------------------- AGEGR1\n    # ASSUMPTION: pooled age groups are the study's two categories: 18-64 and >64.\n    age = pd.to_numeric(dm[\"AGE\"], errors=\"coerce\").values\n\n    def _agegr(a):\n        if a is None or (isinstance(a, float) and np.isnan(a)):\n            return \"\"\n        if a < 18:\n            return \"<18\"\n        if a <= 64:\n            return \"18-64\"\n        return \">64\"\n\n    out[\"AGEGR1\"] = [_agegr(a) for a in age]\n\n    # ---------------------------------------------------------------- RACEGR1\n    def _racegr(r):\n        r = _to_str(r)\n        if r == \"\":\n            return \"\"\n        key = r.upper()\n        if key in _RACEGR1_MAP:\n            return _RACEGR1_MAP[key]\n        return _mixed_case(r)\n\n    out[\"RACEGR1\"] = dm[\"RACE\"].map(_racegr)\n\n    # ----------------------------------------------------------------- EOSSTT\n    # End of study status from the DS disposition event record.\n    # ASSUMPTION: the latest DISPOSITION EVENT record per subject determines the\n    # status; DSDECOD 'COMPLETED' -> COMPLETED, any other disposition event\n    # (including screen failure / withdrawal / death) -> DISCONTINUED; subjects\n    # with no disposition event record have a missing status.\n    dsw = ds[ds[\"DSCAT\"].map(_to_str).str.upper() == \"DISPOSITION EVENT\"].copy()\n    dsw[\"_SEQ\"] = pd.to_numeric(dsw[\"DSSEQ\"], errors=\"coerce\")\n    dsw = dsw.sort_values([\"USUBJID\", \"_SEQ\"])\n    last_ds = dsw.groupby(\"USUBJID\")[\"DSDECOD\"].last()\n\n    def _eosstt(u):\n        if u in last_ds.index:\n            dec = _to_str(last_ds.loc[u]).upper()\n            if dec == \"\":\n                return \"\"\n            return \"COMPLETED\" if dec == \"COMPLETED\" else \"DISCONTINUED\"\n        return \"\"\n\n    out[\"EOSSTT\"] = out[\"USUBJID\"].map(_eosstt)\n\n    # --------------------------------------------------------- final structure\n    out = out[\n        [\n            \"USUBJID\",\n            \"TRT01P\",\n            \"TRT01A\",\n            \"TRTSDT\",\n            \"TRTEDT\",\n            \"TRTDURD\",\n            \"SAFFL\",\n            \"AGEGR1\",\n            \"RACEGR1\",\n            \"EOSSTT\",\n        ]\n    ]\n    # One record per subject.\n    out = out.drop_duplicates(subset=[\"USUBJID\"]).sort_values(\"USUBJID\").reset_index(drop=True)\n    return out",
        "findings": [
          {
            "code": "MISSING_COUNT",
            "layer": "CALIBRATED",
            "variable": "TRTEDT",
            "message": "expected 54 missing values, got 52",
            "n_rows": 2,
            "examples": [],
            "silent": false,
            "needs_answer_key": true
          },
          {
            "code": "CT_VIOLATION",
            "layer": "STRUCTURAL",
            "variable": "RACEGR1",
            "message": "values outside controlled terminology: [\"'American Indian or Alaska Native'\", \"'Asian'\", \"'Black or African American'\"]",
            "n_rows": 33,
            "examples": [
              "American Indian or Alaska Native",
              "Asian",
              "Black or African American"
            ],
            "silent": false,
            "needs_answer_key": false
          },
          {
            "code": "VALUE_COUNTS",
            "layer": "CALIBRATED",
            "variable": "RACEGR1",
            "message": "value distribution differs: expected {'White': 273, 'Non-white': 33}, got {'White': 273, 'Black or African American': 29, 'American Indian or Alaska Native': 2, 'Asian': 2}",
            "n_rows": 0,
            "examples": [],
            "silent": false,
            "needs_answer_key": true
          },
          {
            "code": "VALUE_COUNTS",
            "layer": "CALIBRATED",
            "variable": "EOSSTT",
            "message": "value distribution differs: expected {'DISCONTINUED': 144, 'COMPLETED': 110, '': 52}, got {'DISCONTINUED': 196, 'COMPLETED': 110}",
            "n_rows": 0,
            "examples": [],
            "silent": false,
            "needs_answer_key": true
          },
          {
            "code": "TRUTH_DIFF",
            "layer": "TRUTH",
            "variable": "TRTEDT",
            "message": "6 of 306 values differ from ground truth",
            "n_rows": 6,
            "examples": [
              {
                "key": "01-704-1233",
                "expected": "2013-04-04",
                "got": "2013-04-05"
              },
              {
                "key": "01-705-1018",
                "expected": "nan",
                "got": "2013-07-05"
              },
              {
                "key": "01-705-1031",
                "expected": "2013-12-18",
                "got": "2013-12-19"
              },
              {
                "key": "01-705-1303",
                "expected": "2013-12-30",
                "got": "2013-12-31"
              },
              {
                "key": "01-705-1377",
                "expected": "2014-01-25",
                "got": "2014-01-26"
              }
            ],
            "silent": true,
            "needs_answer_key": true
          },
          {
            "code": "TRUTH_DIFF",
            "layer": "TRUTH",
            "variable": "TRTDURD",
            "message": "6 of 306 values differ from ground truth",
            "n_rows": 6,
            "examples": [
              {
                "key": "01-704-1233",
                "expected": "15.0",
                "got": "16.0"
              },
              {
                "key": "01-705-1018",
                "expected": "nan",
                "got": "1.0"
              },
              {
                "key": "01-705-1031",
                "expected": "22.0",
                "got": "23.0"
              },
              {
                "key": "01-705-1303",
                "expected": "15.0",
                "got": "16.0"
              },
              {
                "key": "01-705-1377",
                "expected": "22.0",
                "got": "23.0"
              }
            ],
            "silent": true,
            "needs_answer_key": true
          },
          {
            "code": "TRUTH_DIFF",
            "layer": "TRUTH",
            "variable": "RACEGR1",
            "message": "33 of 306 values differ from ground truth",
            "n_rows": 33,
            "examples": [
              {
                "key": "01-701-1176",
                "expected": "Non-white",
                "got": "American Indian or Alaska Native"
              },
              {
                "key": "01-701-1203",
                "expected": "Non-white",
                "got": "Black or African American"
              },
              {
                "key": "01-701-1240",
                "expected": "Non-white",
                "got": "Black or African American"
              },
              {
                "key": "01-701-1275",
                "expected": "Non-white",
                "got": "American Indian or Alaska Native"
              },
              {
                "key": "01-701-1363",
                "expected": "Non-white",
                "got": "Black or African American"
              }
            ],
            "silent": true,
            "needs_answer_key": true
          },
          {
            "code": "TRUTH_DIFF",
            "layer": "TRUTH",
            "variable": "EOSSTT",
            "message": "52 of 306 values differ from ground truth",
            "n_rows": 52,
            "examples": [
              {
                "key": "01-701-1057",
                "expected": "",
                "got": "DISCONTINUED"
              },
              {
                "key": "01-701-1145",
                "expected": "",
                "got": "DISCONTINUED"
              },
              {
                "key": "01-701-1162",
                "expected": "",
                "got": "DISCONTINUED"
              },
              {
                "key": "01-701-1176",
                "expected": "",
                "got": "DISCONTINUED"
              },
              {
                "key": "01-701-1240",
                "expected": "",
                "got": "DISCONTINUED"
              }
            ],
            "silent": true,
            "needs_answer_key": true
          }
        ],
        "usage": {
          "input_tokens": 6746,
          "output_tokens": 4440,
          "cache_read": 7037,
          "cache_write": 0
        }
      },
      {
        "n": 4,
        "executed": true,
        "code": "import datetime as _dt\n\nimport numpy as np\nimport pandas as pd\n\n# ------------------------------------------------------------------ provenance\nPROVENANCE = {\n    \"USUBJID\": [\"DM.USUBJID\"],\n    \"TRT01P\": [\"DM.ARM\"],\n    \"TRT01A\": [\"DM.ACTARM\"],\n    \"TRTSDT\": [\"EX.EXSTDTC\", \"EX.EXDOSE\", \"EX.EXTRT\"],\n    \"TRTEDT\": [\"EX.EXENDTC\", \"EX.EXSTDTC\", \"EX.EXDOSE\", \"EX.EXTRT\"],\n    \"TRTDURD\": [\"ADSL.TRTSDT\", \"ADSL.TRTEDT\"],\n    \"SAFFL\": [\"ADSL.TRTSDT\"],\n    \"AGEGR1\": [\"DM.AGE\"],\n    \"RACEGR1\": [\"DM.RACE\"],\n    \"EOSSTT\": [\"DS.DSCAT\", \"DS.DSDECOD\"],\n}\n\n\n# ------------------------------------------------------------------ helpers\ndef _to_date(value):\n    \"\"\"Convert an ISO 8601 SDTM date/datetime string to a datetime.date.\n\n    Returns None when the value is missing or when the date part is not a\n    complete (YYYY-MM-DD) date.\n    ASSUMPTION: partial dates (e.g. '2013-07') are treated as missing; no\n    imputation is performed because the specification does not request an\n    imputation flag.\n    \"\"\"\n    if value is None:\n        return None\n    if isinstance(value, float) and np.isnan(value):\n        return None\n    if isinstance(value, _dt.datetime):\n        return value.date()\n    if isinstance(value, _dt.date):\n        return value\n    s = str(value).strip()\n    if s == \"\" or s.lower() in (\"nan\", \"nat\", \"none\"):\n        return None\n    s = s[:10]\n    if len(s) < 10:\n        return None\n    try:\n        return _dt.date(int(s[0:4]), int(s[5:7]), int(s[8:10]))\n    except (ValueError, TypeError):\n        return None\n\n\ndef _to_str(value):\n    \"\"\"Character variables are Python strings; missing becomes empty string.\"\"\"\n    if value is None:\n        return \"\"\n    if isinstance(value, float) and np.isnan(value):\n        return \"\"\n    s = str(value).strip()\n    if s.lower() in (\"nan\", \"none\", \"nat\"):\n        return \"\"\n    return s\n\n\ndef derive(sources):\n    dm = sources[\"DM\"].copy()\n    ex = sources[\"EX\"].copy()\n    ds = sources[\"DS\"].copy()\n\n    out = pd.DataFrame()\n    out[\"USUBJID\"] = dm[\"USUBJID\"].map(_to_str)\n\n    # ---------------------------------------------------------- treatment vars\n    # ASSUMPTION: this is a single-period study, so planned/actual treatment for\n    # period 01 are the planned/actual arm from DM.\n    out[\"TRT01P\"] = dm[\"ARM\"].map(_to_str)\n    out[\"TRT01A\"] = dm[\"ACTARM\"].map(_to_str)\n\n    # ---------------------------------------------------------- TRTSDT / TRTEDT\n    # ASSUMPTION: an exposure record counts as actual treatment when the dose is\n    # non-missing and either positive or zero for a placebo treatment (placebo is\n    # administered at a dose of 0), and it has a usable start date.\n    exw = ex.copy()\n    exw[\"_STDT\"] = exw[\"EXSTDTC\"].map(_to_date)\n    exw[\"_ENDT\"] = exw[\"EXENDTC\"].map(_to_date)\n    exw[\"_TRT\"] = exw[\"EXTRT\"].map(_to_str).str.upper()\n    dose = pd.to_numeric(exw[\"EXDOSE\"], errors=\"coerce\")\n    valid = dose.notna() & ((dose > 0) | ((dose == 0) & exw[\"_TRT\"].str.contains(\"PLACEBO\")))\n    exw = exw[valid & exw[\"_STDT\"].notna()]\n\n    # ASSUMPTION: when an exposure end date is missing, the start date of that\n    # record is used so the record still contributes to the last exposure date.\n    exw[\"_ENDT\"] = exw[\"_ENDT\"].where(exw[\"_ENDT\"].notna(), exw[\"_STDT\"])\n\n    if len(exw):\n        first = exw.groupby(\"USUBJID\")[\"_STDT\"].min()\n        last = exw.groupby(\"USUBJID\")[\"_ENDT\"].max()\n    else:\n        first = pd.Series(dtype=object)\n        last = pd.Series(dtype=object)\n\n    out[\"TRTSDT\"] = out[\"USUBJID\"].map(first)\n    out[\"TRTEDT\"] = out[\"USUBJID\"].map(last)\n    out[\"TRTSDT\"] = out[\"TRTSDT\"].where(out[\"TRTSDT\"].notna(), None).astype(object)\n    out[\"TRTEDT\"] = out[\"TRTEDT\"].where(out[\"TRTEDT\"].notna(), None).astype(object)\n\n    # ---------------------------------------------------------------- TRTDURD\n    def _dur(row):\n        s, e = row[\"TRTSDT\"], row[\"TRTEDT\"]\n        if isinstance(s, _dt.date) and isinstance(e, _dt.date):\n            return float((e - s).days + 1)\n        return np.nan\n\n    out[\"TRTDURD\"] = out.apply(_dur, axis=1).astype(float)\n\n    # ------------------------------------------------------------------ SAFFL\n    # ASSUMPTION: safety population = subjects with at least one documented\n    # exposure to study treatment (i.e. a non-missing TRTSDT).\n    out[\"SAFFL\"] = np.where(out[\"TRTSDT\"].map(lambda x: isinstance(x, _dt.date)), \"Y\", \"N\")\n    out[\"SAFFL\"] = out[\"SAFFL\"].astype(str)\n\n    # ----------------------------------------------------------------- AGEGR1\n    # ASSUMPTION: pooled age groups are the study's two categories: 18-64 and >64.\n    age = pd.to_numeric(dm[\"AGE\"], errors=\"coerce\").values\n\n    def _agegr(a):\n        if a is None or (isinstance(a, float) and np.isnan(a)):\n            return \"\"\n        if a < 18:\n            return \"<18\"\n        if a <= 64:\n            return \"18-64\"\n        return \">64\"\n\n    out[\"AGEGR1\"] = [_agegr(a) for a in age]\n\n    # ---------------------------------------------------------------- RACEGR1\n    # ASSUMPTION: pooled race group 1 is a two-level pooling of the collected\n    # race: 'White' versus 'Non-white'; missing race stays missing.\n    def _racegr(r):\n        r = _to_str(r)\n        if r == \"\":\n            return \"\"\n        return \"White\" if r.upper() == \"WHITE\" else \"Non-white\"\n\n    out[\"RACEGR1\"] = dm[\"RACE\"].map(_racegr)\n\n    # ----------------------------------------------------------------- EOSSTT\n    # End of study status from the DS disposition event record.\n    # ASSUMPTION: the latest DISPOSITION EVENT record per subject determines the\n    # status; DSDECOD 'COMPLETED' -> COMPLETED, any other disposition event\n    # (including screen failure / withdrawal / death) -> DISCONTINUED; subjects\n    # with no disposition event record have a missing status.\n    dsw = ds[ds[\"DSCAT\"].map(_to_str).str.upper() == \"DISPOSITION EVENT\"].copy()\n    dsw[\"_SEQ\"] = pd.to_numeric(dsw[\"DSSEQ\"], errors=\"coerce\")\n    dsw = dsw.sort_values([\"USUBJID\", \"_SEQ\"])\n    last_ds = dsw.groupby(\"USUBJID\")[\"DSDECOD\"].last()\n\n    def _eosstt(u):\n        if u in last_ds.index:\n            dec = _to_str(last_ds.loc[u]).upper()\n            if dec == \"\":\n                return \"\"\n            return \"COMPLETED\" if dec == \"COMPLETED\" else \"DISCONTINUED\"\n        return \"\"\n\n    out[\"EOSSTT\"] = out[\"USUBJID\"].map(_eosstt)\n\n    # --------------------------------------------------------- final structure\n    out = out[\n        [\n            \"USUBJID\",\n            \"TRT01P\",\n            \"TRT01A\",\n            \"TRTSDT\",\n            \"TRTEDT\",\n            \"TRTDURD\",\n            \"SAFFL\",\n            \"AGEGR1\",\n            \"RACEGR1\",\n            \"EOSSTT\",\n        ]\n    ]\n    # One record per subject.\n    out = out.drop_duplicates(subset=[\"USUBJID\"]).sort_values(\"USUBJID\").reset_index(drop=True)\n    return out",
        "findings": [
          {
            "code": "MISSING_COUNT",
            "layer": "CALIBRATED",
            "variable": "TRTEDT",
            "message": "expected 54 missing values, got 52",
            "n_rows": 2,
            "examples": [],
            "silent": false,
            "needs_answer_key": true
          },
          {
            "code": "VALUE_COUNTS",
            "layer": "CALIBRATED",
            "variable": "EOSSTT",
            "message": "value distribution differs: expected {'DISCONTINUED': 144, 'COMPLETED': 110, '': 52}, got {'DISCONTINUED': 196, 'COMPLETED': 110}",
            "n_rows": 0,
            "examples": [],
            "silent": false,
            "needs_answer_key": true
          },
          {
            "code": "TRUTH_DIFF",
            "layer": "TRUTH",
            "variable": "TRTEDT",
            "message": "6 of 306 values differ from ground truth",
            "n_rows": 6,
            "examples": [
              {
                "key": "01-704-1233",
                "expected": "2013-04-04",
                "got": "2013-04-05"
              },
              {
                "key": "01-705-1018",
                "expected": "nan",
                "got": "2013-07-05"
              },
              {
                "key": "01-705-1031",
                "expected": "2013-12-18",
                "got": "2013-12-19"
              },
              {
                "key": "01-705-1303",
                "expected": "2013-12-30",
                "got": "2013-12-31"
              },
              {
                "key": "01-705-1377",
                "expected": "2014-01-25",
                "got": "2014-01-26"
              }
            ],
            "silent": true,
            "needs_answer_key": true
          },
          {
            "code": "TRUTH_DIFF",
            "layer": "TRUTH",
            "variable": "TRTDURD",
            "message": "6 of 306 values differ from ground truth",
            "n_rows": 6,
            "examples": [
              {
                "key": "01-704-1233",
                "expected": "15.0",
                "got": "16.0"
              },
              {
                "key": "01-705-1018",
                "expected": "nan",
                "got": "1.0"
              },
              {
                "key": "01-705-1031",
                "expected": "22.0",
                "got": "23.0"
              },
              {
                "key": "01-705-1303",
                "expected": "15.0",
                "got": "16.0"
              },
              {
                "key": "01-705-1377",
                "expected": "22.0",
                "got": "23.0"
              }
            ],
            "silent": true,
            "needs_answer_key": true
          },
          {
            "code": "TRUTH_DIFF",
            "layer": "TRUTH",
            "variable": "EOSSTT",
            "message": "52 of 306 values differ from ground truth",
            "n_rows": 52,
            "examples": [
              {
                "key": "01-701-1057",
                "expected": "",
                "got": "DISCONTINUED"
              },
              {
                "key": "01-701-1145",
                "expected": "",
                "got": "DISCONTINUED"
              },
              {
                "key": "01-701-1162",
                "expected": "",
                "got": "DISCONTINUED"
              },
              {
                "key": "01-701-1176",
                "expected": "",
                "got": "DISCONTINUED"
              },
              {
                "key": "01-701-1240",
                "expected": "",
                "got": "DISCONTINUED"
              }
            ],
            "silent": true,
            "needs_answer_key": true
          }
        ],
        "usage": {
          "input_tokens": 10278,
          "output_tokens": 3311,
          "cache_read": 7037,
          "cache_write": 0
        }
      }
    ]
  },
  {
    "dataset": "ADSL",
    "level": "L2",
    "repeat": 1,
    "model": "claude-opus-5",
    "score": 0.7,
    "n_attempts": 2,
    "target_variables": [
      "USUBJID",
      "TRT01P",
      "TRT01A",
      "TRTSDT",
      "TRTEDT",
      "TRTDURD",
      "SAFFL",
      "AGEGR1",
      "RACEGR1",
      "EOSSTT"
    ],
    "clean_variables": [
      "USUBJID",
      "TRT01P",
      "TRT01A",
      "TRTSDT",
      "SAFFL",
      "AGEGR1",
      "RACEGR1"
    ],
    "provenance": {
      "USUBJID": [
        "DM.USUBJID"
      ],
      "TRT01P": [
        "DM.ARM"
      ],
      "TRT01A": [
        "DM.ACTARM"
      ],
      "TRTSDT": [
        "EX.EXSTDTC",
        "EX.USUBJID"
      ],
      "TRTEDT": [
        "EX.EXENDTC",
        "EX.EXSTDTC",
        "EX.USUBJID"
      ],
      "TRTDURD": [
        "EX.EXSTDTC",
        "EX.EXENDTC"
      ],
      "SAFFL": [
        "EX.EXSTDTC"
      ],
      "AGEGR1": [
        "DM.AGE",
        "DM.AGEU"
      ],
      "RACEGR1": [
        "DM.RACE"
      ],
      "EOSSTT": [
        "DS.DSDECOD",
        "DS.DSCAT",
        "DS.USUBJID"
      ]
    },
    "cost_usd": 0.2261,
    "attempts": [
      {
        "n": 1,
        "executed": true,
        "code": "\"\"\"\nADSL - Subject-Level Analysis Dataset\nDerived from SDTM DM, EX and DS.\n\nASSUMPTION: Only the ten variables named in the specification are produced,\none record per subject in DM, sorted by USUBJID.\n\"\"\"\n\nimport pandas as pd\nimport numpy as np\nfrom datetime import datetime\n\nPROVENANCE = {\n    \"USUBJID\": [\"DM.USUBJID\"],\n    \"TRT01P\": [\"DM.ARM\"],\n    \"TRT01A\": [\"DM.ACTARM\"],\n    \"TRTSDT\": [\"EX.EXSTDTC\", \"EX.USUBJID\"],\n    \"TRTEDT\": [\"EX.EXENDTC\", \"EX.EXSTDTC\", \"EX.USUBJID\"],\n    \"TRTDURD\": [\"EX.EXSTDTC\", \"EX.EXENDTC\"],\n    \"SAFFL\": [\"EX.EXSTDTC\"],\n    \"AGEGR1\": [\"DM.AGE\", \"DM.AGEU\"],\n    \"RACEGR1\": [\"DM.RACE\"],\n    \"EOSSTT\": [\"DS.DSDECOD\", \"DS.DSCAT\", \"DS.USUBJID\"],\n}\n\n\ndef _to_date(value):\n    \"\"\"Convert an ISO 8601 SDTM date/time string to a datetime.date.\n\n    ASSUMPTION: Partial dates (less than a complete YYYY-MM-DD) are not\n    imputed and are treated as missing, since the specification gives no\n    imputation rule.\n    \"\"\"\n    if value is None:\n        return None\n    try:\n        if pd.isna(value):\n            return None\n    except (TypeError, ValueError):\n        pass\n    s = str(value).strip()\n    if len(s) < 10:\n        return None\n    try:\n        return datetime.strptime(s[:10], \"%Y-%m-%d\").date()\n    except ValueError:\n        return None\n\n\ndef _age_group(age, ageu):\n    \"\"\"Pooled age group: <18 / 18-64 / >64 (years).\"\"\"\n    if age is None or pd.isna(age):\n        return \"\"\n    # ASSUMPTION: Ages are recorded in YEARS; any other unit is not pooled.\n    if isinstance(ageu, str) and ageu.strip().upper() not in (\"YEARS\", \"\"):\n        return \"\"\n    a = float(age)\n    if a < 18:\n        return \"<18\"\n    if a <= 64:\n        return \"18-64\"\n    return \">64\"\n\n\ndef _race_group(race):\n    \"\"\"Pooled race group: White vs Non-White.\"\"\"\n    if race is None or (isinstance(race, float) and pd.isna(race)):\n        return \"\"\n    r = str(race).strip().upper()\n    if r == \"\":\n        return \"\"\n    if r == \"WHITE\":\n        return \"White\"\n    return \"Non-White\"\n\n\ndef derive(sources):\n    dm = sources[\"DM\"].copy()\n    ex = sources[\"EX\"].copy()\n    ds = sources[\"DS\"].copy()\n\n    # ---------------------------------------------------------------- DM base\n    out = pd.DataFrame()\n    out[\"USUBJID\"] = dm[\"USUBJID\"].astype(str)\n    out[\"TRT01P\"] = dm[\"ARM\"].apply(lambda v: \"\" if v is None or (not isinstance(v, str) and pd.isna(v)) else str(v))\n    out[\"TRT01A\"] = dm[\"ACTARM\"].apply(lambda v: \"\" if v is None or (not isinstance(v, str) and pd.isna(v)) else str(v))\n\n    # ------------------------------------------------- Treatment start/end (EX)\n    # ASSUMPTION: All exposure records with a non-missing start date count as\n    # treatment administrations, including zero-dose (placebo) records, which\n    # represent actual administration of the randomised patch.\n    ex = ex[[\"USUBJID\", \"EXSTDTC\", \"EXENDTC\"]].copy()\n    ex[\"_ST\"] = ex[\"EXSTDTC\"].apply(_to_date)\n    ex[\"_EN\"] = ex[\"EXENDTC\"].apply(_to_date)\n    ex = ex[ex[\"_ST\"].notna()]\n    # ASSUMPTION: When an exposure end date is missing, the corresponding\n    # start date is used as the end of that administration.\n    ex[\"_EN\"] = [en if en is not None else st for st, en in zip(ex[\"_ST\"], ex[\"_EN\"])]\n\n    start_map, end_map = {}, {}\n    for usubjid, grp in ex.groupby(\"USUBJID\", sort=False):\n        start_map[str(usubjid)] = min(grp[\"_ST\"])\n        ends = [e for e in grp[\"_EN\"] if e is not None]\n        end_map[str(usubjid)] = max(ends) if ends else None\n\n    out[\"TRTSDT\"] = [start_map.get(u) for u in out[\"USUBJID\"]]\n    out[\"TRTEDT\"] = [end_map.get(u) for u in out[\"USUBJID\"]]\n\n    # ------------------------------------------------------------ TRTDURD\n    # TRTEDT - TRTSDT + 1\n    durs = []\n    for sd, ed in zip(out[\"TRTSDT\"], out[\"TRTEDT\"]):\n        if sd is None or ed is None:\n            durs.append(np.nan)\n        else:\n            durs.append(float((ed - sd).days + 1))\n    out[\"TRTDURD\"] = durs\n\n    # ------------------------------------------------------------- SAFFL\n    # ASSUMPTION: Safety population = subjects with at least one documented\n    # study treatment administration (non-missing TRTSDT).\n    out[\"SAFFL\"] = [\"Y\" if sd is not None else \"N\" for sd in out[\"TRTSDT\"]]\n\n    # ------------------------------------------------- Pooled demographics\n    out[\"AGEGR1\"] = [_age_group(a, u) for a, u in zip(dm[\"AGE\"], dm.get(\"AGEU\", pd.Series([\"\"] * len(dm))))]\n    out[\"RACEGR1\"] = [_race_group(r) for r in dm[\"RACE\"]]\n\n    # ------------------------------------------------------------- EOSSTT\n    # ASSUMPTION: End of study status comes from the DS disposition event\n    # record; DSDECOD of COMPLETED maps to 'COMPLETED', any other disposition\n    # event maps to 'DISCONTINUED', and subjects with no disposition event\n    # are considered 'ONGOING'.\n    disp = ds[ds[\"DSCAT\"].astype(str).str.upper().str.strip() == \"DISPOSITION EVENT\"].copy()\n    if \"DSSEQ\" in disp.columns:\n        disp = disp.sort_values([\"USUBJID\", \"DSSEQ\"])\n    eos_map = {}\n    for usubjid, grp in disp.groupby(\"USUBJID\", sort=False):\n        decod = grp[\"DSDECOD\"].iloc[-1]\n        decod = \"\" if decod is None or (not isinstance(decod, str) and pd.isna(decod)) else str(decod).strip().upper()\n        if decod == \"COMPLETED\":\n            eos_map[str(usubjid)] = \"COMPLETED\"\n        elif decod == \"\":\n            eos_map[str(usubjid)] = \"ONGOING\"\n        else:\n            eos_map[str(usubjid)] = \"DISCONTINUED\"\n\n    out[\"EOSSTT\"] = [eos_map.get(u, \"ONGOING\") for u in out[\"USUBJID\"]]\n\n    # ------------------------------------------------------------- finalise\n    out = out[[\"USUBJID\", \"TRT01P\", \"TRT01A\", \"TRTSDT\", \"TRTEDT\",\n               \"TRTDURD\", \"SAFFL\", \"AGEGR1\", \"RACEGR1\", \"EOSSTT\"]]\n    out = out.drop_duplicates(subset=[\"USUBJID\"]).sort_values(\"USUBJID\").reset_index(drop=True)\n\n    for col in [\"USUBJID\", \"TRT01P\", \"TRT01A\", \"SAFFL\", \"AGEGR1\", \"RACEGR1\", \"EOSSTT\"]:\n        out[col] = out[col].astype(str)\n    for col in [\"TRTSDT\", \"TRTEDT\"]:\n        out[col] = out[col].astype(object)\n    out[\"TRTDURD\"] = pd.to_numeric(out[\"TRTDURD\"], errors=\"coerce\")\n\n    return out",
        "findings": [
          {
            "code": "MISSING_COUNT",
            "layer": "CALIBRATED",
            "variable": "TRTEDT",
            "message": "expected 54 missing values, got 52",
            "n_rows": 2,
            "examples": [],
            "silent": false,
            "needs_answer_key": true
          },
          {
            "code": "CT_VIOLATION",
            "layer": "STRUCTURAL",
            "variable": "RACEGR1",
            "message": "values outside controlled terminology: [\"'Non-White'\"]",
            "n_rows": 33,
            "examples": [
              "Non-White"
            ],
            "silent": false,
            "needs_answer_key": false
          },
          {
            "code": "VALUE_COUNTS",
            "layer": "CALIBRATED",
            "variable": "RACEGR1",
            "message": "value distribution differs: expected {'White': 273, 'Non-white': 33}, got {'White': 273, 'Non-White': 33}",
            "n_rows": 0,
            "examples": [],
            "silent": false,
            "needs_answer_key": true
          },
          {
            "code": "VALUE_COUNTS",
            "layer": "CALIBRATED",
            "variable": "EOSSTT",
            "message": "value distribution differs: expected {'DISCONTINUED': 144, 'COMPLETED': 110, '': 52}, got {'DISCONTINUED': 196, 'COMPLETED': 110}",
            "n_rows": 0,
            "examples": [],
            "silent": false,
            "needs_answer_key": true
          },
          {
            "code": "TRUTH_DIFF",
            "layer": "TRUTH",
            "variable": "TRTEDT",
            "message": "6 of 306 values differ from ground truth",
            "n_rows": 6,
            "examples": [
              {
                "key": "01-704-1233",
                "expected": "2013-04-04",
                "got": "2013-04-05"
              },
              {
                "key": "01-705-1018",
                "expected": "nan",
                "got": "2013-07-05"
              },
              {
                "key": "01-705-1031",
                "expected": "2013-12-18",
                "got": "2013-12-19"
              },
              {
                "key": "01-705-1303",
                "expected": "2013-12-30",
                "got": "2013-12-31"
              },
              {
                "key": "01-705-1377",
                "expected": "2014-01-25",
                "got": "2014-01-26"
              }
            ],
            "silent": true,
            "needs_answer_key": true
          },
          {
            "code": "TRUTH_DIFF",
            "layer": "TRUTH",
            "variable": "TRTDURD",
            "message": "6 of 306 values differ from ground truth",
            "n_rows": 6,
            "examples": [
              {
                "key": "01-704-1233",
                "expected": "15.0",
                "got": "16.0"
              },
              {
                "key": "01-705-1018",
                "expected": "nan",
                "got": "1.0"
              },
              {
                "key": "01-705-1031",
                "expected": "22.0",
                "got": "23.0"
              },
              {
                "key": "01-705-1303",
                "expected": "15.0",
                "got": "16.0"
              },
              {
                "key": "01-705-1377",
                "expected": "22.0",
                "got": "23.0"
              }
            ],
            "silent": true,
            "needs_answer_key": true
          },
          {
            "code": "TRUTH_DIFF",
            "layer": "TRUTH",
            "variable": "RACEGR1",
            "message": "33 of 306 values differ from ground truth",
            "n_rows": 33,
            "examples": [
              {
                "key": "01-701-1176",
                "expected": "Non-white",
                "got": "Non-White"
              },
              {
                "key": "01-701-1203",
                "expected": "Non-white",
                "got": "Non-White"
              },
              {
                "key": "01-701-1240",
                "expected": "Non-white",
                "got": "Non-White"
              },
              {
                "key": "01-701-1275",
                "expected": "Non-white",
                "got": "Non-White"
              },
              {
                "key": "01-701-1363",
                "expected": "Non-white",
                "got": "Non-White"
              }
            ],
            "silent": true,
            "needs_answer_key": true
          },
          {
            "code": "TRUTH_DIFF",
            "layer": "TRUTH",
            "variable": "EOSSTT",
            "message": "52 of 306 values differ from ground truth",
            "n_rows": 52,
            "examples": [
              {
                "key": "01-701-1057",
                "expected": "",
                "got": "DISCONTINUED"
              },
              {
                "key": "01-701-1145",
                "expected": "",
                "got": "DISCONTINUED"
              },
              {
                "key": "01-701-1162",
                "expected": "",
                "got": "DISCONTINUED"
              },
              {
                "key": "01-701-1176",
                "expected": "",
                "got": "DISCONTINUED"
              },
              {
                "key": "01-701-1240",
                "expected": "",
                "got": "DISCONTINUED"
              }
            ],
            "silent": true,
            "needs_answer_key": true
          }
        ],
        "usage": {
          "input_tokens": 555,
          "output_tokens": 4194,
          "cache_read": 7037,
          "cache_write": 0
        }
      },
      {
        "n": 2,
        "executed": true,
        "code": "\"\"\"\nADSL - Subject-Level Analysis Dataset\nDerived from SDTM DM, EX and DS.\n\nASSUMPTION: Only the ten variables named in the specification are produced,\none record per subject in DM, sorted by USUBJID.\n\"\"\"\n\nimport pandas as pd\nimport numpy as np\nfrom datetime import datetime\n\nPROVENANCE = {\n    \"USUBJID\": [\"DM.USUBJID\"],\n    \"TRT01P\": [\"DM.ARM\"],\n    \"TRT01A\": [\"DM.ACTARM\"],\n    \"TRTSDT\": [\"EX.EXSTDTC\", \"EX.USUBJID\"],\n    \"TRTEDT\": [\"EX.EXENDTC\", \"EX.EXSTDTC\", \"EX.USUBJID\"],\n    \"TRTDURD\": [\"EX.EXSTDTC\", \"EX.EXENDTC\"],\n    \"SAFFL\": [\"EX.EXSTDTC\"],\n    \"AGEGR1\": [\"DM.AGE\", \"DM.AGEU\"],\n    \"RACEGR1\": [\"DM.RACE\"],\n    \"EOSSTT\": [\"DS.DSDECOD\", \"DS.DSCAT\", \"DS.USUBJID\"],\n}\n\n\ndef _to_date(value):\n    \"\"\"Convert an ISO 8601 SDTM date/time string to a datetime.date.\n\n    ASSUMPTION: Partial dates (less than a complete YYYY-MM-DD) are not\n    imputed and are treated as missing, since the specification gives no\n    imputation rule.\n    \"\"\"\n    if value is None:\n        return None\n    try:\n        if pd.isna(value):\n            return None\n    except (TypeError, ValueError):\n        pass\n    s = str(value).strip()\n    if len(s) < 10:\n        return None\n    try:\n        return datetime.strptime(s[:10], \"%Y-%m-%d\").date()\n    except ValueError:\n        return None\n\n\ndef _age_group(age, ageu):\n    \"\"\"Pooled age group: <18 / 18-64 / >64 (years).\"\"\"\n    if age is None or pd.isna(age):\n        return \"\"\n    # ASSUMPTION: Ages are recorded in YEARS; any other unit is not pooled.\n    if isinstance(ageu, str) and ageu.strip().upper() not in (\"YEARS\", \"\"):\n        return \"\"\n    a = float(age)\n    if a < 18:\n        return \"<18\"\n    if a <= 64:\n        return \"18-64\"\n    return \">64\"\n\n\ndef _race_group(race):\n    \"\"\"Pooled race group: two levels, 'White' and 'Non-white'.\"\"\"\n    if race is None or (isinstance(race, float) and pd.isna(race)):\n        return \"\"\n    r = str(race).strip().upper()\n    if r == \"\":\n        return \"\"\n    if r == \"WHITE\":\n        return \"White\"\n    return \"Non-white\"\n\n\ndef derive(sources):\n    dm = sources[\"DM\"].copy()\n    ex = sources[\"EX\"].copy()\n    ds = sources[\"DS\"].copy()\n\n    # ---------------------------------------------------------------- DM base\n    out = pd.DataFrame()\n    out[\"USUBJID\"] = dm[\"USUBJID\"].astype(str)\n    out[\"TRT01P\"] = dm[\"ARM\"].apply(lambda v: \"\" if v is None or (not isinstance(v, str) and pd.isna(v)) else str(v))\n    out[\"TRT01A\"] = dm[\"ACTARM\"].apply(lambda v: \"\" if v is None or (not isinstance(v, str) and pd.isna(v)) else str(v))\n\n    # ------------------------------------------------- Treatment start/end (EX)\n    # ASSUMPTION: All exposure records with a non-missing start date count as\n    # treatment administrations, including zero-dose (placebo) records, which\n    # represent actual administration of the randomised patch.\n    ex = ex[[\"USUBJID\", \"EXSTDTC\", \"EXENDTC\"]].copy()\n    ex[\"_ST\"] = ex[\"EXSTDTC\"].apply(_to_date)\n    ex[\"_EN\"] = ex[\"EXENDTC\"].apply(_to_date)\n    ex = ex[ex[\"_ST\"].notna()]\n    # ASSUMPTION: When an exposure end date is missing, the corresponding\n    # start date is used as the end of that administration.\n    ex[\"_EN\"] = [en if en is not None else st for st, en in zip(ex[\"_ST\"], ex[\"_EN\"])]\n\n    start_map, end_map = {}, {}\n    for usubjid, grp in ex.groupby(\"USUBJID\", sort=False):\n        start_map[str(usubjid)] = min(grp[\"_ST\"])\n        ends = [e for e in grp[\"_EN\"] if e is not None]\n        end_map[str(usubjid)] = max(ends) if ends else None\n\n    out[\"TRTSDT\"] = [start_map.get(u) for u in out[\"USUBJID\"]]\n    out[\"TRTEDT\"] = [end_map.get(u) for u in out[\"USUBJID\"]]\n\n    # ------------------------------------------------------------ TRTDURD\n    # TRTEDT - TRTSDT + 1\n    durs = []\n    for sd, ed in zip(out[\"TRTSDT\"], out[\"TRTEDT\"]):\n        if sd is None or ed is None:\n            durs.append(np.nan)\n        else:\n            durs.append(float((ed - sd).days + 1))\n    out[\"TRTDURD\"] = durs\n\n    # ------------------------------------------------------------- SAFFL\n    # ASSUMPTION: Safety population = subjects with at least one documented\n    # study treatment administration (non-missing TRTSDT).\n    out[\"SAFFL\"] = [\"Y\" if sd is not None else \"N\" for sd in out[\"TRTSDT\"]]\n\n    # ------------------------------------------------- Pooled demographics\n    out[\"AGEGR1\"] = [_age_group(a, u) for a, u in zip(dm[\"AGE\"], dm.get(\"AGEU\", pd.Series([\"\"] * len(dm))))]\n    out[\"RACEGR1\"] = [_race_group(r) for r in dm[\"RACE\"]]\n\n    # ------------------------------------------------------------- EOSSTT\n    # ASSUMPTION: End of study status comes from the DS disposition event\n    # record; DSDECOD of COMPLETED maps to 'COMPLETED', any other disposition\n    # event maps to 'DISCONTINUED', and subjects with no disposition event\n    # are considered 'ONGOING'.\n    disp = ds[ds[\"DSCAT\"].astype(str).str.upper().str.strip() == \"DISPOSITION EVENT\"].copy()\n    if \"DSSEQ\" in disp.columns:\n        disp = disp.sort_values([\"USUBJID\", \"DSSEQ\"])\n    eos_map = {}\n    for usubjid, grp in disp.groupby(\"USUBJID\", sort=False):\n        decod = grp[\"DSDECOD\"].iloc[-1]\n        decod = \"\" if decod is None or (not isinstance(decod, str) and pd.isna(decod)) else str(decod).strip().upper()\n        if decod == \"COMPLETED\":\n            eos_map[str(usubjid)] = \"COMPLETED\"\n        elif decod == \"\":\n            eos_map[str(usubjid)] = \"ONGOING\"\n        else:\n            eos_map[str(usubjid)] = \"DISCONTINUED\"\n\n    out[\"EOSSTT\"] = [eos_map.get(u, \"ONGOING\") for u in out[\"USUBJID\"]]\n\n    # ------------------------------------------------------------- finalise\n    out = out[[\"USUBJID\", \"TRT01P\", \"TRT01A\", \"TRTSDT\", \"TRTEDT\",\n               \"TRTDURD\", \"SAFFL\", \"AGEGR1\", \"RACEGR1\", \"EOSSTT\"]]\n    out = out.drop_duplicates(subset=[\"USUBJID\"]).sort_values(\"USUBJID\").reset_index(drop=True)\n\n    for col in [\"USUBJID\", \"TRT01P\", \"TRT01A\", \"SAFFL\", \"AGEGR1\", \"RACEGR1\", \"EOSSTT\"]:\n        out[col] = out[col].astype(str)\n    for col in [\"TRTSDT\", \"TRTEDT\"]:\n        out[col] = out[col].astype(object)\n    out[\"TRTDURD\"] = pd.to_numeric(out[\"TRTDURD\"], errors=\"coerce\")\n\n    return out",
        "findings": [
          {
            "code": "MISSING_COUNT",
            "layer": "CALIBRATED",
            "variable": "TRTEDT",
            "message": "expected 54 missing values, got 52",
            "n_rows": 2,
            "examples": [],
            "silent": false,
            "needs_answer_key": true
          },
          {
            "code": "VALUE_COUNTS",
            "layer": "CALIBRATED",
            "variable": "EOSSTT",
            "message": "value distribution differs: expected {'DISCONTINUED': 144, 'COMPLETED': 110, '': 52}, got {'DISCONTINUED': 196, 'COMPLETED': 110}",
            "n_rows": 0,
            "examples": [],
            "silent": false,
            "needs_answer_key": true
          },
          {
            "code": "TRUTH_DIFF",
            "layer": "TRUTH",
            "variable": "TRTEDT",
            "message": "6 of 306 values differ from ground truth",
            "n_rows": 6,
            "examples": [
              {
                "key": "01-704-1233",
                "expected": "2013-04-04",
                "got": "2013-04-05"
              },
              {
                "key": "01-705-1018",
                "expected": "nan",
                "got": "2013-07-05"
              },
              {
                "key": "01-705-1031",
                "expected": "2013-12-18",
                "got": "2013-12-19"
              },
              {
                "key": "01-705-1303",
                "expected": "2013-12-30",
                "got": "2013-12-31"
              },
              {
                "key": "01-705-1377",
                "expected": "2014-01-25",
                "got": "2014-01-26"
              }
            ],
            "silent": true,
            "needs_answer_key": true
          },
          {
            "code": "TRUTH_DIFF",
            "layer": "TRUTH",
            "variable": "TRTDURD",
            "message": "6 of 306 values differ from ground truth",
            "n_rows": 6,
            "examples": [
              {
                "key": "01-704-1233",
                "expected": "15.0",
                "got": "16.0"
              },
              {
                "key": "01-705-1018",
                "expected": "nan",
                "got": "1.0"
              },
              {
                "key": "01-705-1031",
                "expected": "22.0",
                "got": "23.0"
              },
              {
                "key": "01-705-1303",
                "expected": "15.0",
                "got": "16.0"
              },
              {
                "key": "01-705-1377",
                "expected": "22.0",
                "got": "23.0"
              }
            ],
            "silent": true,
            "needs_answer_key": true
          },
          {
            "code": "TRUTH_DIFF",
            "layer": "TRUTH",
            "variable": "EOSSTT",
            "message": "52 of 306 values differ from ground truth",
            "n_rows": 52,
            "examples": [
              {
                "key": "01-701-1057",
                "expected": "",
                "got": "DISCONTINUED"
              },
              {
                "key": "01-701-1145",
                "expected": "",
                "got": "DISCONTINUED"
              },
              {
                "key": "01-701-1162",
                "expected": "",
                "got": "DISCONTINUED"
              },
              {
                "key": "01-701-1176",
                "expected": "",
                "got": "DISCONTINUED"
              },
              {
                "key": "01-701-1240",
                "expected": "",
                "got": "DISCONTINUED"
              }
            ],
            "silent": true,
            "needs_answer_key": true
          }
        ],
        "usage": {
          "input_tokens": 3482,
          "output_tokens": 3762,
          "cache_read": 7037,
          "cache_write": 0
        }
      }
    ]
  },
  {
    "dataset": "ADSL",
    "level": "L2",
    "repeat": 2,
    "model": "claude-opus-5",
    "score": 0.7,
    "n_attempts": 2,
    "target_variables": [
      "USUBJID",
      "TRT01P",
      "TRT01A",
      "TRTSDT",
      "TRTEDT",
      "TRTDURD",
      "SAFFL",
      "AGEGR1",
      "RACEGR1",
      "EOSSTT"
    ],
    "clean_variables": [
      "USUBJID",
      "TRT01P",
      "TRT01A",
      "TRTSDT",
      "SAFFL",
      "AGEGR1",
      "RACEGR1"
    ],
    "provenance": {
      "USUBJID": [
        "DM.USUBJID"
      ],
      "TRT01P": [
        "DM.ARM"
      ],
      "TRT01A": [
        "DM.ACTARM"
      ],
      "TRTSDT": [
        "EX.USUBJID",
        "EX.EXSTDTC",
        "EX.EXDOSE",
        "EX.EXTRT"
      ],
      "TRTEDT": [
        "EX.USUBJID",
        "EX.EXENDTC",
        "EX.EXSTDTC",
        "EX.EXDOSE",
        "EX.EXTRT"
      ],
      "TRTDURD": [
        "ADSL.TRTSDT",
        "ADSL.TRTEDT"
      ],
      "SAFFL": [
        "ADSL.TRTSDT"
      ],
      "AGEGR1": [
        "DM.AGE",
        "DM.AGEU"
      ],
      "RACEGR1": [
        "DM.RACE"
      ],
      "EOSSTT": [
        "DS.USUBJID",
        "DS.DSCAT",
        "DS.DSDECOD",
        "DS.DSSTDTC",
        "DS.DSSEQ"
      ]
    },
    "cost_usd": 0.251,
    "attempts": [
      {
        "n": 1,
        "executed": true,
        "code": "\"\"\"\nADSL - Subject-Level Analysis Dataset\nDerived from SDTM DM, EX and DS.\n\nStructure: one record per subject (key = USUBJID).\n\"\"\"\n\nimport datetime\n\nimport numpy as np\nimport pandas as pd\n\n# Provenance: every produced variable -> the source columns it is derived from.\nPROVENANCE = {\n    \"USUBJID\": [\"DM.USUBJID\"],\n    \"TRT01P\": [\"DM.ARM\"],\n    \"TRT01A\": [\"DM.ACTARM\"],\n    \"TRTSDT\": [\"EX.USUBJID\", \"EX.EXSTDTC\", \"EX.EXDOSE\", \"EX.EXTRT\"],\n    \"TRTEDT\": [\"EX.USUBJID\", \"EX.EXENDTC\", \"EX.EXSTDTC\", \"EX.EXDOSE\", \"EX.EXTRT\"],\n    \"TRTDURD\": [\"ADSL.TRTSDT\", \"ADSL.TRTEDT\"],\n    \"SAFFL\": [\"ADSL.TRTSDT\"],\n    \"AGEGR1\": [\"DM.AGE\", \"DM.AGEU\"],\n    \"RACEGR1\": [\"DM.RACE\"],\n    \"EOSSTT\": [\"DS.USUBJID\", \"DS.DSCAT\", \"DS.DSDECOD\", \"DS.DSSTDTC\", \"DS.DSSEQ\"],\n}\n\n\ndef _to_date_series(s):\n    \"\"\"Parse ISO 8601 SDTM --DTC strings to pandas datetime (date part only).\n\n    # ASSUMPTION: only complete (YYYY-MM-DD) dates are usable for analysis dates;\n    # partial dates (e.g. 'YYYY' or 'YYYY-MM') are left missing rather than imputed,\n    # because the specification requests no imputation flags.\n    \"\"\"\n    s = pd.Series(s).astype(\"object\")\n    s = s.where(s.notna(), None)\n    txt = s.map(lambda v: str(v)[:10] if v is not None and str(v) != \"\" else None)\n    return pd.to_datetime(txt, format=\"%Y-%m-%d\", errors=\"coerce\")\n\n\ndef _to_date_objects(ser):\n    \"\"\"Convert a datetime series to python datetime.date objects (None when missing).\"\"\"\n    return [None if pd.isna(v) else pd.Timestamp(v).date() for v in ser]\n\n\ndef derive(sources):\n    dm = sources[\"DM\"].copy()\n    ex = sources[\"EX\"].copy()\n    ds = sources[\"DS\"].copy()\n\n    adsl = pd.DataFrame()\n    adsl[\"USUBJID\"] = dm[\"USUBJID\"].astype(str)\n\n    # ---------------- Treatment variables -------------------------------\n    # ASSUMPTION: the study has a single treatment period, so planned/actual\n    # treatment for period 01 are taken directly from DM.ARM / DM.ACTARM.\n    adsl[\"TRT01P\"] = dm[\"ARM\"].fillna(\"\").astype(str).values\n    adsl[\"TRT01A\"] = dm[\"ACTARM\"].fillna(\"\").astype(str).values\n\n    # ---------------- TRTSDT / TRTEDT from EX ---------------------------\n    ex[\"_STDT\"] = _to_date_series(ex[\"EXSTDTC\"])\n    ex[\"_ENDT\"] = _to_date_series(ex[\"EXENDTC\"])\n    # If the exposure end date is missing, fall back to the exposure start date.\n    ex[\"_ENDT\"] = ex[\"_ENDT\"].fillna(ex[\"_STDT\"])\n\n    # ASSUMPTION: an exposure record counts as actual treatment when a non-zero\n    # dose was given, or when the administered treatment is placebo (dose = 0 by\n    # design). Records with a missing start date cannot contribute.\n    dose = pd.to_numeric(ex[\"EXDOSE\"], errors=\"coerce\")\n    trt_txt = ex[\"EXTRT\"].fillna(\"\").astype(str).str.upper()\n    is_placebo = trt_txt.str.contains(\"PLACEBO\")\n    valid = ex[\"_STDT\"].notna() & ((dose > 0) | ((dose == 0) & is_placebo))\n\n    exv = ex.loc[valid, [\"USUBJID\", \"_STDT\", \"_ENDT\"]]\n    first = exv.groupby(\"USUBJID\")[\"_STDT\"].min()\n    last = exv.groupby(\"USUBJID\")[\"_ENDT\"].max()\n\n    trtsdt = adsl[\"USUBJID\"].map(first)\n    trtedt = adsl[\"USUBJID\"].map(last)\n\n    # ---------------- TRTDURD -------------------------------------------\n    # Treatment duration (days) = TRTEDT - TRTSDT + 1 (inclusive of both dates).\n    dur = (trtedt - trtsdt).dt.days + 1\n    dur = dur.where(trtsdt.notna() & trtedt.notna(), np.nan)\n\n    adsl[\"TRTSDT\"] = _to_date_objects(trtsdt)\n    adsl[\"TRTEDT\"] = _to_date_objects(trtedt)\n    adsl[\"TRTDURD\"] = dur.astype(float).values\n\n    # ---------------- SAFFL ---------------------------------------------\n    # ASSUMPTION: Safety population = subjects with at least one documented\n    # administration of study treatment (i.e. a non-missing TRTSDT).\n    adsl[\"SAFFL\"] = np.where(trtsdt.notna(), \"Y\", \"N\")\n\n    # ---------------- AGEGR1 --------------------------------------------\n    # ASSUMPTION: pooled age groups are '<18', '18-64' and '>64' (years),\n    # consistent with the age grouping used for this study.\n    age = pd.to_numeric(dm[\"AGE\"], errors=\"coerce\").values\n    ageu = dm[\"AGEU\"].fillna(\"YEARS\").astype(str).str.upper().values\n\n    def _agegr(a, u):\n        if pd.isna(a) or u != \"YEARS\":\n            return \"\"\n        if a < 18:\n            return \"<18\"\n        if a <= 64:\n            return \"18-64\"\n        return \">64\"\n\n    adsl[\"AGEGR1\"] = [_agegr(a, u) for a, u in zip(age, ageu)]\n\n    # ---------------- RACEGR1 -------------------------------------------\n    # ASSUMPTION: pooled race group collapses all non-white races to 'Non-White';\n    # missing/unreported race yields a missing group.\n    race = dm[\"RACE\"].fillna(\"\").astype(str).str.upper().str.strip().values\n\n    def _racegr(r):\n        if r == \"\" or r in (\"UNKNOWN\", \"NOT REPORTED\"):\n            return \"\"\n        return \"White\" if r == \"WHITE\" else \"Non-White\"\n\n    adsl[\"RACEGR1\"] = [_racegr(r) for r in race]\n\n    # ---------------- EOSSTT --------------------------------------------\n    # ASSUMPTION: end-of-study status is taken from the DS disposition event\n    # record; DSDECOD='COMPLETED' -> 'COMPLETED', any other disposition event ->\n    # 'DISCONTINUED', and subjects without a disposition event are 'ONGOING'.\n    dsd = ds[ds[\"DSCAT\"].fillna(\"\").astype(str).str.upper() == \"DISPOSITION EVENT\"].copy()\n    dsd[\"_DT\"] = _to_date_series(dsd[\"DSSTDTC\"])\n    dsd[\"_SEQ\"] = pd.to_numeric(dsd[\"DSSEQ\"], errors=\"coerce\")\n    # Use the latest disposition event per subject.\n    dsd = dsd.sort_values([\"USUBJID\", \"_DT\", \"_SEQ\"], na_position=\"first\")\n    last_ds = dsd.groupby(\"USUBJID\")[\"DSDECOD\"].last()\n\n    decod = adsl[\"USUBJID\"].map(last_ds)\n\n    def _eosstt(d):\n        if d is None or (isinstance(d, float) and pd.isna(d)) or str(d).strip() == \"\":\n            return \"ONGOING\"\n        return \"COMPLETED\" if str(d).strip().upper() == \"COMPLETED\" else \"DISCONTINUED\"\n\n    adsl[\"EOSSTT\"] = [_eosstt(d) for d in decod]\n\n    # ---------------- Finalise ------------------------------------------\n    # One record per subject, ordered by USUBJID.\n    adsl = adsl.drop_duplicates(subset=[\"USUBJID\"], keep=\"first\")\n    adsl = adsl.sort_values(\"USUBJID\").reset_index(drop=True)\n\n    for c in [\"USUBJID\", \"TRT01P\", \"TRT01A\", \"SAFFL\", \"AGEGR1\", \"RACEGR1\", \"EOSSTT\"]:\n        adsl[c] = adsl[c].astype(str)\n\n    return adsl[\n        [\n            \"USUBJID\",\n            \"TRT01P\",\n            \"TRT01A\",\n            \"TRTSDT\",\n            \"TRTEDT\",\n            \"TRTDURD\",\n            \"SAFFL\",\n            \"AGEGR1\",\n            \"RACEGR1\",